#K-Path(1/A) Energy-Level(eV)
# NKPTS & NBANDS: 130  48
# Band-Index:    1
   0.00000    -18.386420
   0.05153    -18.386422
   0.10305    -18.386418
   0.15458    -18.386419
   0.20610    -18.386435
   0.20610    -18.386435
   0.24892    -18.387225
   0.29174    -18.389706
   0.33456    -18.394091
   0.37738    -18.400653
   0.42020    -18.409665
   0.46302    -18.421229
   0.50584    -18.435200
   0.54866    -18.451166
   0.59147    -18.468574
   0.63429    -18.486789
   0.67711    -18.505192
   0.71993    -18.523271
   0.76275    -18.540569
   0.80557    -18.556748
   0.84839    -18.571552
   0.89121    -18.584815
   0.93403    -18.596392
   0.97685    -18.606244
   1.01967    -18.614382
   1.06249    -18.620865
   1.10531    -18.625789
   1.14812    -18.629302
   1.19094    -18.631575
   1.23376    -18.632830
   1.27658    -18.633285
   1.27658    -18.633288
   1.32260    -18.633164
   1.36863    -18.632673
   1.41465    -18.632075
   1.46067    -18.631569
   1.50669    -18.631274
   1.55271    -18.631257
   1.59874    -18.631497
   1.64476    -18.631937
   1.69078    -18.632450
   1.73680    -18.632933
   1.78282    -18.633264
   1.82885    -18.633382
   1.82885    -18.633382
   1.87155    -18.632178
   1.91425    -18.628604
   1.95695    -18.622686
   1.99965    -18.614514
   2.04235    -18.604174
   2.08505    -18.591780
   2.12775    -18.577530
   2.17045    -18.561632
   2.21315    -18.544346
   2.25585    -18.526015
   2.29855    -18.507029
   2.34125    -18.487864
   2.38395    -18.469077
   2.42665    -18.451269
   2.46935    -18.435074
   2.51205    -18.421031
   2.55475    -18.409462
   2.59745    -18.400503
   2.64015    -18.393997
   2.68285    -18.389665
   2.72555    -18.387209
   2.76826    -18.386420
   2.76826    -18.386420
   2.81008    -18.387182
   2.85191    -18.389544
   2.89374    -18.393712
   2.93556    -18.399945
   2.97739    -18.408502
   3.01922    -18.419474
   3.06105    -18.432772
   3.10287    -18.448072
   3.14470    -18.464849
   3.18653    -18.482515
   3.22835    -18.500517
   3.27018    -18.518305
   3.31201    -18.535464
   3.35383    -18.551644
   3.39566    -18.566587
   3.43749    -18.580096
   3.47932    -18.592043
   3.52114    -18.602351
   3.56297    -18.611030
   3.60480    -18.618069
   3.64662    -18.623580
   3.68845    -18.627676
   3.73028    -18.630500
   3.77211    -18.632248
   3.81393    -18.633105
   3.85576    -18.633303
   3.85576    -18.633301
   3.90036    -18.633030
   3.94497    -18.632495
   3.98957    -18.631916
   4.03417    -18.631469
   4.07878    -18.631238
   4.12338    -18.631277
   4.16798    -18.631547
   4.21259    -18.631989
   4.25719    -18.632490
   4.30179    -18.632940
   4.34640    -18.633263
   4.39100    -18.633377
   4.39100    -18.633377
   4.43404    -18.632173
   4.47708    -18.628602
   4.52013    -18.622691
   4.56317    -18.614512
   4.60621    -18.604165
   4.64925    -18.591778
   4.69229    -18.577535
   4.73533    -18.561640
   4.77838    -18.544363
   4.82142    -18.526033
   4.86446    -18.507046
   4.90750    -18.487859
   4.95054    -18.469067
   4.99358    -18.451279
   5.03662    -18.435083
   5.07967    -18.421034
   5.12271    -18.409466
   5.16575    -18.400512
   5.20879    -18.394003
   5.25183    -18.389661
   5.29487    -18.387209
   5.33792    -18.386420
 
# Band-Index:    2
   5.33792    -18.181008
   5.29487    -18.182210
   5.25183    -18.185612
   5.20879    -18.190636
   5.16575    -18.196448
   5.12271    -18.202144
   5.07967    -18.206955
   5.03662    -18.210301
   4.99358    -18.212001
   4.95054    -18.212107
   4.90750    -18.210861
   4.86446    -18.208574
   4.82142    -18.205542
   4.77838    -18.202059
   4.73533    -18.198393
   4.69229    -18.194754
   4.64925    -18.191301
   4.60621    -18.188197
   4.56317    -18.185530
   4.52013    -18.183381
   4.47708    -18.181818
   4.43404    -18.180863
   4.39100    -18.180551
   4.39100    -18.180551
   4.34640    -18.180490
   4.30179    -18.180328
   4.25719    -18.180068
   4.21259    -18.179706
   4.16798    -18.179236
   4.12338    -18.178684
   4.07878    -18.178043
   4.03417    -18.177350
   3.98957    -18.176647
   3.94497    -18.176015
   3.90036    -18.175542
   3.85576    -18.175324
   3.85576    -18.175327
   3.81393    -18.175447
   3.77211    -18.175974
   3.73028    -18.176931
   3.68845    -18.178361
   3.64662    -18.180239
   3.60480    -18.182548
   3.56297    -18.185265
   3.52114    -18.188307
   3.47932    -18.191615
   3.43749    -18.195094
   3.39566    -18.198658
   3.35383    -18.202179
   3.31201    -18.205523
   3.27018    -18.208510
   3.22835    -18.210941
   3.18653    -18.212559
   3.14470    -18.213156
   3.10287    -18.212466
   3.06105    -18.210298
   3.01922    -18.206655
   2.97739    -18.201742
   2.93556    -18.196044
   2.89374    -18.190337
   2.85191    -18.185448
   2.81008    -18.182177
   2.76826    -18.181008
   2.76826    -18.181008
   2.72555    -18.182210
   2.68285    -18.185614
   2.64015    -18.190630
   2.59745    -18.196446
   2.55475    -18.202141
   2.51205    -18.206949
   2.46935    -18.210285
   2.42665    -18.211995
   2.38395    -18.212113
   2.34125    -18.210860
   2.29855    -18.208559
   2.25585    -18.205528
   2.21315    -18.202048
   2.17045    -18.198382
   2.12775    -18.194738
   2.08505    -18.191294
   2.04235    -18.188184
   1.99965    -18.185516
   1.95695    -18.183375
   1.91425    -18.181816
   1.87155    -18.180863
   1.82885    -18.180551
   1.82885    -18.180551
   1.78282    -18.180497
   1.73680    -18.180331
   1.69078    -18.180052
   1.64476    -18.179660
   1.59874    -18.179168
   1.55271    -18.178580
   1.50669    -18.177901
   1.46067    -18.177164
   1.41465    -18.176452
   1.36863    -18.175831
   1.32260    -18.175424
   1.27658    -18.175336
   1.27658    -18.175330
   1.23376    -18.175621
   1.19094    -18.176352
   1.14812    -18.177567
   1.10531    -18.179245
   1.06249    -18.181404
   1.01967    -18.183990
   0.97685    -18.186963
   0.93403    -18.190249
   0.89121    -18.193758
   0.84839    -18.197377
   0.80557    -18.201020
   0.76275    -18.204525
   0.71993    -18.207711
   0.67711    -18.210371
   0.63429    -18.212284
   0.59147    -18.213140
   0.54866    -18.212708
   0.50584    -18.210774
   0.46302    -18.207250
   0.42020    -18.202359
   0.37738    -18.196589
   0.33456    -18.190724
   0.29174    -18.185641
   0.24892    -18.182199
   0.20610    -18.181010
   0.20610    -18.181010
   0.15458    -18.180995
   0.10305    -18.181000
   0.05153    -18.181022
   0.00000    -18.181008
 
# Band-Index:    3
   0.00000    -18.181008
   0.05153    -18.181022
   0.10305    -18.181000
   0.15458    -18.180995
   0.20610    -18.181010
   0.20610    -18.181010
   0.24892    -18.180469
   0.29174    -18.178867
   0.33456    -18.176244
   0.37738    -18.172656
   0.42020    -18.168248
   0.46302    -18.163137
   0.50584    -18.157532
   0.54866    -18.151592
   0.59147    -18.145527
   0.63429    -18.139610
   0.67711    -18.133983
   0.71993    -18.128859
   0.76275    -18.124393
   0.80557    -18.120651
   0.84839    -18.117696
   0.89121    -18.115537
   0.93403    -18.114112
   0.97685    -18.113338
   1.01967    -18.113112
   1.06249    -18.113316
   1.10531    -18.113803
   1.14812    -18.114428
   1.19094    -18.115041
   1.23376    -18.115528
   1.27658    -18.115769
   1.27658    -18.115773
   1.32260    -18.115671
   1.36863    -18.115108
   1.41465    -18.114065
   1.46067    -18.112560
   1.50669    -18.110630
   1.55271    -18.108407
   1.59874    -18.106010
   1.64476    -18.103610
   1.69078    -18.101460
   1.73680    -18.099739
   1.78282    -18.098618
   1.82885    -18.098243
   1.82885    -18.098243
   1.87155    -18.098499
   1.91425    -18.099283
   1.95695    -18.100602
   1.99965    -18.102500
   2.04235    -18.104983
   2.08505    -18.108086
   2.12775    -18.111837
   2.17045    -18.116227
   2.21315    -18.121204
   2.25585    -18.126706
   2.29855    -18.132626
   2.34125    -18.138854
   2.38395    -18.145227
   2.42665    -18.151534
   2.46935    -18.157611
   2.51205    -18.163276
   2.55475    -18.168364
   2.59745    -18.172751
   2.64015    -18.176300
   2.68285    -18.178878
   2.72555    -18.180469
   2.76826    -18.181008
   2.76826    -18.181008
   2.81008    -18.180489
   2.85191    -18.178957
   2.89374    -18.176464
   2.93556    -18.173035
   2.97739    -18.168814
   3.01922    -18.163900
   3.06105    -18.158470
   3.10287    -18.152699
   3.14470    -18.146789
   3.18653    -18.140943
   3.22835    -18.135386
   3.27018    -18.130240
   3.31201    -18.125673
   3.35383    -18.121788
   3.39566    -18.118658
   3.43749    -18.116273
   3.47932    -18.114605
   3.52114    -18.113590
   3.56297    -18.113176
   3.60480    -18.113185
   3.64662    -18.113532
   3.68845    -18.114100
   3.73028    -18.114713
   3.77211    -18.115289
   3.81393    -18.115668
   3.85576    -18.115786
   3.85576    -18.115785
   3.90036    -18.115539
   3.94497    -18.114849
   3.98957    -18.113700
   4.03417    -18.112131
   4.07878    -18.110167
   4.12338    -18.107961
   4.16798    -18.105619
   4.21259    -18.103331
   4.25719    -18.101268
   4.30179    -18.099623
   4.34640    -18.098583
   4.39100    -18.098219
   4.39100    -18.098219
   4.43404    -18.098473
   4.47708    -18.099250
   4.52013    -18.100581
   4.56317    -18.102489
   4.60621    -18.104986
   4.64925    -18.108097
   4.69229    -18.111849
   4.73533    -18.116220
   4.77838    -18.121201
   4.82142    -18.126723
   4.86446    -18.132641
   4.90750    -18.138850
   4.95054    -18.145210
   4.99358    -18.151544
   5.03662    -18.157606
   5.07967    -18.163290
   5.12271    -18.168367
   5.16575    -18.172765
   5.20879    -18.176298
   5.25183    -18.178882
   5.29487    -18.180469
   5.33792    -18.181008
 
# Band-Index:    4
   5.33792    -17.973389
   5.29487    -17.973848
   5.25183    -17.975189
   5.20879    -17.977303
   5.16575    -17.979985
   5.12271    -17.983119
   5.07967    -17.986557
   5.03662    -17.990154
   4.99358    -17.993855
   4.95054    -17.997545
   4.90750    -18.001223
   4.86446    -18.004800
   4.82142    -18.008219
   4.77838    -18.011422
   4.73533    -18.014366
   4.69229    -18.017040
   4.64925    -18.019389
   4.60621    -18.021412
   4.56317    -18.023045
   4.52013    -18.024309
   4.47708    -18.025225
   4.43404    -18.025797
   4.39100    -18.025992
   4.39100    -18.025992
   4.34640    -18.025641
   4.30179    -18.024644
   4.25719    -18.023021
   4.21259    -18.020775
   4.16798    -18.017946
   4.12338    -18.014599
   4.07878    -18.010746
   4.03417    -18.006489
   3.98957    -18.001900
   3.94497    -17.997088
   3.90036    -17.992183
   3.85576    -17.987315
   3.85576    -17.987316
   3.81393    -17.990471
   3.77211    -17.994551
   3.73028    -17.998210
   3.68845    -18.001445
   3.64662    -18.004154
   3.60480    -18.006334
   3.56297    -18.007985
   3.52114    -18.009012
   3.47932    -18.009501
   3.43749    -18.009410
   3.39566    -18.008773
   3.35383    -18.007609
   3.31201    -18.005979
   3.27018    -18.003900
   3.22835    -18.001460
   3.18653    -17.998672
   3.14470    -17.995670
   3.10287    -17.992475
   3.06105    -17.989183
   3.01922    -17.985908
   2.97739    -17.982700
   2.93556    -17.979719
   2.89374    -17.977147
   2.85191    -17.975128
   2.81008    -17.973841
   2.76826    -17.973389
   2.76826    -17.973389
   2.72555    -17.973848
   2.68285    -17.975206
   2.64015    -17.977297
   2.59745    -17.979979
   2.55475    -17.983119
   2.51205    -17.986549
   2.46935    -17.990159
   2.42665    -17.993856
   2.38395    -17.997573
   2.34125    -18.001217
   2.29855    -18.004776
   2.25585    -18.008207
   2.21315    -18.011403
   2.17045    -18.014365
   2.12775    -18.017036
   2.08505    -18.019383
   2.04235    -18.021381
   1.99965    -18.023039
   1.95695    -18.024333
   1.91425    -18.025255
   1.87155    -18.025804
   1.82885    -18.025982
   1.82885    -18.025982
   1.78282    -18.025630
   1.73680    -18.024577
   1.69078    -18.022855
   1.64476    -18.020488
   1.59874    -18.017482
   1.55271    -18.013928
   1.50669    -18.009867
   1.46067    -18.005384
   1.41465    -18.000562
   1.36863    -17.995552
   1.32260    -17.990472
   1.27658    -17.987896
   1.27658    -17.987892
   1.23376    -17.992260
   1.19094    -17.996250
   1.14812    -17.999832
   1.10531    -18.002874
   1.06249    -18.005368
   1.01967    -18.007298
   0.97685    -18.008635
   0.93403    -18.009373
   0.89121    -18.009486
   0.84839    -18.009028
   0.80557    -18.008031
   0.76275    -18.006524
   0.71993    -18.004552
   0.67711    -18.002143
   0.63429    -17.999386
   0.59147    -17.996338
   0.54866    -17.993096
   0.50584    -17.989740
   0.46302    -17.986357
   0.42020    -17.983073
   0.37738    -17.979993
   0.33456    -17.977325
   0.29174    -17.975182
   0.24892    -17.973808
   0.20610    -17.973341
   0.20610    -17.973341
   0.15458    -17.973340
   0.10305    -17.973354
   0.05153    -17.973395
   0.00000    -17.973389
 
# Band-Index:    5
   0.00000    -17.973389
   0.05153    -17.973395
   0.10305    -17.973354
   0.15458    -17.973340
   0.20610    -17.973341
   0.20610    -17.973341
   0.24892    -17.973310
   0.29174    -17.973243
   0.33456    -17.973093
   0.37738    -17.972855
   0.42020    -17.972531
   0.46302    -17.972115
   0.50584    -17.971602
   0.54866    -17.970958
   0.59147    -17.970198
   0.63429    -17.969324
   0.67711    -17.968329
   0.71993    -17.967292
   0.76275    -17.966266
   0.80557    -17.965307
   0.84839    -17.964569
   0.89121    -17.964158
   0.93403    -17.964185
   0.97685    -17.964732
   1.01967    -17.965888
   1.06249    -17.967712
   1.10531    -17.970181
   1.14812    -17.973290
   1.19094    -17.976922
   1.23376    -17.981020
   1.27658    -17.985435
   1.27658    -17.985439
   1.32260    -17.982852
   1.36863    -17.977588
   1.41465    -17.972221
   1.46067    -17.966878
   1.50669    -17.961711
   1.55271    -17.956847
   1.59874    -17.952436
   1.64476    -17.948630
   1.69078    -17.945487
   1.73680    -17.943180
   1.78282    -17.941783
   1.82885    -17.941310
   1.82885    -17.941310
   1.87155    -17.941646
   1.91425    -17.942643
   1.95695    -17.944260
   1.99965    -17.946401
   2.04235    -17.948955
   2.08505    -17.951764
   2.12775    -17.954678
   2.17045    -17.957590
   2.21315    -17.960367
   2.25585    -17.962919
   2.29855    -17.965193
   2.34125    -17.967152
   2.38395    -17.968770
   2.42665    -17.970051
   2.46935    -17.971054
   2.51205    -17.971842
   2.55475    -17.972400
   2.59745    -17.972810
   2.64015    -17.973089
   2.68285    -17.973252
   2.72555    -17.973357
   2.76826    -17.973389
   2.76826    -17.973389
   2.81008    -17.973363
   2.85191    -17.973270
   2.89374    -17.973124
   2.93556    -17.972896
   2.97739    -17.972600
   3.01922    -17.972200
   3.06105    -17.971699
   3.10287    -17.971077
   3.14470    -17.970356
   3.18653    -17.969508
   3.22835    -17.968585
   3.27018    -17.967588
   3.31201    -17.966569
   3.35383    -17.965612
   3.39566    -17.964818
   3.43749    -17.964288
   3.47932    -17.964145
   3.52114    -17.964453
   3.56297    -17.965323
   3.60480    -17.966786
   3.64662    -17.968898
   3.68845    -17.971619
   3.73028    -17.974904
   3.77211    -17.978685
   3.81393    -17.982842
   3.85576    -17.986017
   3.85576    -17.986015
   3.90036    -17.981082
   3.94497    -17.975925
   3.98957    -17.970717
   4.03417    -17.965579
   4.07878    -17.960634
   4.12338    -17.956017
   4.16798    -17.951816
   4.21259    -17.948199
   4.25719    -17.945243
   4.30179    -17.943071
   4.34640    -17.941725
   4.39100    -17.941292
   4.39100    -17.941292
   4.43404    -17.941621
   4.47708    -17.942638
   4.52013    -17.944260
   4.56317    -17.946401
   4.60621    -17.948939
   4.64925    -17.951749
   4.69229    -17.954683
   4.73533    -17.957614
   4.77838    -17.960399
   4.82142    -17.962957
   4.86446    -17.965206
   4.90750    -17.967135
   4.95054    -17.968759
   4.99358    -17.970050
   5.03662    -17.971066
   5.07967    -17.971852
   5.12271    -17.972408
   5.16575    -17.972826
   5.20879    -17.973098
   5.25183    -17.973268
   5.29487    -17.973357
   5.33792    -17.973389
 
# Band-Index:    6
   5.33792    -16.937009
   5.29487    -16.930470
   5.25183    -16.911061
   5.20879    -16.879402
   5.16575    -16.836468
   5.12271    -16.783685
   5.07967    -16.726197
   5.03662    -16.728456
   4.99358    -16.756638
   4.95054    -16.786753
   4.90750    -16.817390
   4.86446    -16.847762
   4.82142    -16.877237
   4.77838    -16.905287
   4.73533    -16.931469
   4.69229    -16.955405
   4.64925    -16.976753
   4.60621    -16.995252
   4.56317    -17.010663
   4.52013    -17.022824
   4.47708    -17.031613
   4.43404    -17.036934
   4.39100    -17.038720
   4.39100    -17.038720
   4.34640    -17.037089
   4.30179    -17.032256
   4.25719    -17.024339
   4.21259    -17.013486
   4.16798    -16.999956
   4.12338    -16.984081
   4.07878    -16.966232
   4.03417    -16.946930
   3.98957    -16.926867
   3.94497    -16.907206
   3.90036    -16.890418
   3.85576    -16.882025
   3.85576    -16.882026
   3.81393    -16.886021
   3.77211    -16.896752
   3.73028    -16.908402
   3.68845    -16.918401
   3.64662    -16.925663
   3.60480    -16.929742
   3.56297    -16.930416
   3.52114    -16.927548
   3.47932    -16.921206
   3.43749    -16.911446
   3.39566    -16.898423
   3.35383    -16.882344
   3.31201    -16.863505
   3.27018    -16.842245
   3.22835    -16.818995
   3.18653    -16.794209
   3.14470    -16.768581
   3.10287    -16.742812
   3.06105    -16.718645
   3.01922    -16.730851
   2.97739    -16.788666
   2.93556    -16.839872
   2.89374    -16.881391
   2.85191    -16.911973
   2.81008    -16.930703
   2.76826    -16.937009
   2.76826    -16.937009
   2.72555    -16.930471
   2.68285    -16.911066
   2.64015    -16.879400
   2.59745    -16.836459
   2.55475    -16.783640
   2.51205    -16.725841
   2.46935    -16.728249
   2.42665    -16.756537
   2.38395    -16.786705
   2.34125    -16.817342
   2.29855    -16.847710
   2.25585    -16.877207
   2.21315    -16.905264
   2.17045    -16.931455
   2.12775    -16.955389
   2.08505    -16.976737
   2.04235    -16.995231
   1.99965    -17.010661
   1.95695    -17.022835
   1.91425    -17.031625
   1.87155    -17.036939
   1.82885    -17.038712
   1.82885    -17.038712
   1.78282    -17.036991
   1.73680    -17.031856
   1.69078    -17.023432
   1.64476    -17.011928
   1.59874    -16.997594
   1.55271    -16.980826
   1.50669    -16.962057
   1.46067    -16.941879
   1.41465    -16.921137
   1.36863    -16.901377
   1.32260    -16.886148
   1.27658    -16.882362
   1.27658    -16.882359
   1.23376    -16.890237
   1.19094    -16.902134
   1.14812    -16.913486
   1.10531    -16.922428
   1.06249    -16.928221
   1.01967    -16.930529
   0.97685    -16.929195
   0.93403    -16.924186
   0.89121    -16.915544
   0.84839    -16.903415
   0.80557    -16.888013
   0.76275    -16.869611
   0.71993    -16.848567
   0.67711    -16.825279
   0.63429    -16.800293
   0.59147    -16.774235
   0.54866    -16.747930
   0.50584    -16.723001
   0.46302    -16.724188
   0.42020    -16.781932
   0.37738    -16.835112
   0.33456    -16.878417
   0.29174    -16.910365
   0.24892    -16.929964
   0.20610    -16.936572
   0.20610    -16.936572
   0.15458    -16.936639
   0.10305    -16.936794
   0.05153    -16.936949
   0.00000    -16.937009
 
# Band-Index:    7
   0.00000    -16.607110
   0.05153    -16.607112
   0.10305    -16.607080
   0.15458    -16.607052
   0.20610    -16.607064
   0.20610    -16.607064
   0.24892    -16.610025
   0.29174    -16.618569
   0.33456    -16.631888
   0.37738    -16.649122
   0.42020    -16.669303
   0.46302    -16.687664
   0.50584    -16.644196
   0.54866    -16.604632
   0.59147    -16.605961
   0.63429    -16.609355
   0.67711    -16.614123
   0.71993    -16.620308
   0.76275    -16.627965
   0.80557    -16.637122
   0.84839    -16.647847
   0.89121    -16.660125
   0.93403    -16.673943
   0.97685    -16.689212
   1.01967    -16.705824
   1.06249    -16.723644
   1.10531    -16.742377
   1.14812    -16.761608
   1.19094    -16.780478
   1.23376    -16.797179
   1.27658    -16.807105
   1.27658    -16.807109
   1.32260    -16.802572
   1.36863    -16.783638
   1.41465    -16.757480
   1.46067    -16.728045
   1.50669    -16.697372
   1.55271    -16.666964
   1.59874    -16.638180
   1.64476    -16.612369
   1.69078    -16.590700
   1.73680    -16.574342
   1.78282    -16.564155
   1.82885    -16.560699
   1.82885    -16.560699
   1.87155    -16.560748
   1.91425    -16.560925
   1.95695    -16.561285
   1.99965    -16.561833
   2.04235    -16.562641
   2.08505    -16.563722
   2.12775    -16.565123
   2.17045    -16.566925
   2.21315    -16.569161
   2.25585    -16.571838
   2.29855    -16.574957
   2.34125    -16.578474
   2.38395    -16.582280
   2.42665    -16.586241
   2.46935    -16.647248
   2.51205    -16.692064
   2.55475    -16.671469
   2.59745    -16.650071
   2.64015    -16.632170
   2.68285    -16.618626
   2.72555    -16.610055
   2.76826    -16.607110
   2.76826    -16.607110
   2.81008    -16.609958
   2.85191    -16.618123
   2.89374    -16.630894
   2.93556    -16.647554
   2.97739    -16.667258
   3.01922    -16.687413
   3.06105    -16.656659
   3.10287    -16.605684
   3.14470    -16.605540
   3.18653    -16.608461
   3.22835    -16.612798
   3.27018    -16.618459
   3.31201    -16.625501
   3.35383    -16.633979
   3.39566    -16.643950
   3.43749    -16.655410
   3.47932    -16.668346
   3.52114    -16.682685
   3.56297    -16.698370
   3.60480    -16.715254
   3.64662    -16.733167
   3.68845    -16.751777
   3.73028    -16.770530
   3.77211    -16.788347
   3.81393    -16.802597
   3.85576    -16.807510
   3.85576    -16.807508
   3.90036    -16.797350
   3.94497    -16.776085
   3.98957    -16.749534
   4.03417    -16.720533
   4.07878    -16.690744
   4.12338    -16.661494
   4.16798    -16.633981
   4.21259    -16.609448
   4.25719    -16.588956
   4.30179    -16.573529
   4.34640    -16.563900
   4.39100    -16.560655
   4.39100    -16.560655
   4.43404    -16.560703
   4.47708    -16.560909
   4.52013    -16.561279
   4.56317    -16.561835
   4.60621    -16.562619
   4.64925    -16.563701
   4.69229    -16.565125
   4.73533    -16.566956
   4.77838    -16.569192
   4.82142    -16.571875
   4.86446    -16.574971
   4.90750    -16.578450
   4.95054    -16.582267
   4.99358    -16.586232
   5.03662    -16.646927
   5.07967    -16.691648
   5.12271    -16.671384
   5.16575    -16.650042
   5.20879    -16.632162
   5.25183    -16.618606
   5.29487    -16.610055
   5.33792    -16.607110
 
# Band-Index:    8
   5.33792    -16.607110
   5.29487    -16.606699
   5.25183    -16.605497
   5.20879    -16.603548
   5.16575    -16.600931
   5.12271    -16.597734
   5.07967    -16.594144
   5.03662    -16.590242
   4.99358    -16.571906
   4.95054    -16.500800
   4.90750    -16.491203
   4.86446    -16.487252
   4.82142    -16.485836
   4.77838    -16.486148
   4.73533    -16.487417
   4.69229    -16.489104
   4.64925    -16.490906
   4.60621    -16.492642
   4.56317    -16.494176
   4.52013    -16.495438
   4.47708    -16.496380
   4.43404    -16.496948
   4.39100    -16.497169
   4.39100    -16.497169
   4.34640    -16.496478
   4.30179    -16.494495
   4.25719    -16.491414
   4.21259    -16.487290
   4.16798    -16.482243
   4.12338    -16.476423
   4.07878    -16.469927
   4.03417    -16.462946
   3.98957    -16.455648
   3.94497    -16.448354
   3.90036    -16.441518
   3.85576    -16.436858
   3.85576    -16.436860
   3.81393    -16.439077
   3.77211    -16.443207
   3.73028    -16.447170
   3.68845    -16.450806
   3.64662    -16.453977
   3.60480    -16.456662
   3.56297    -16.458842
   3.52114    -16.460435
   3.47932    -16.461543
   3.43749    -16.462109
   3.39566    -16.462160
   3.35383    -16.461763
   3.31201    -16.461562
   3.27018    -16.466809
   3.22835    -16.473563
   3.18653    -16.481536
   3.14470    -16.503176
   3.10287    -16.579464
   3.06105    -16.600389
   3.01922    -16.600819
   2.97739    -16.601533
   2.93556    -16.602730
   2.89374    -16.604221
   2.85191    -16.605667
   2.81008    -16.606724
   2.76826    -16.607110
   2.76826    -16.607110
   2.72555    -16.606699
   2.68285    -16.605483
   2.64015    -16.603536
   2.59745    -16.600918
   2.55475    -16.597726
   2.51205    -16.594123
   2.46935    -16.590229
   2.42665    -16.572160
   2.38395    -16.500997
   2.34125    -16.491214
   2.29855    -16.487230
   2.25585    -16.485810
   2.21315    -16.486121
   2.17045    -16.487401
   2.12775    -16.489092
   2.08505    -16.490908
   2.04235    -16.492662
   1.99965    -16.494182
   1.95695    -16.495430
   1.91425    -16.496376
   1.87155    -16.496953
   1.82885    -16.497148
   1.82885    -16.497148
   1.78282    -16.496455
   1.73680    -16.494378
   1.69078    -16.491079
   1.64476    -16.486723
   1.59874    -16.481388
   1.55271    -16.475249
   1.50669    -16.468419
   1.46067    -16.461115
   1.41465    -16.453537
   1.36863    -16.446087
   1.32260    -16.439429
   1.27658    -16.437099
   1.27658    -16.437095
   1.23376    -16.440829
   1.19094    -16.445036
   1.14812    -16.448973
   1.10531    -16.452471
   1.06249    -16.455456
   1.01967    -16.457901
   0.97685    -16.459808
   0.93403    -16.461153
   0.89121    -16.461941
   0.84839    -16.462167
   0.80557    -16.461935
   0.76275    -16.461358
   0.71993    -16.465098
   0.67711    -16.471688
   0.63429    -16.479564
   0.59147    -16.489916
   0.54866    -16.565431
   0.50584    -16.600332
   0.46302    -16.600801
   0.42020    -16.601439
   0.37738    -16.602605
   0.33456    -16.604107
   0.29174    -16.605587
   0.24892    -16.606658
   0.20610    -16.607064
   0.20610    -16.607064
   0.15458    -16.607052
   0.10305    -16.607080
   0.05153    -16.607112
   0.00000    -16.607110
 
# Band-Index:    9
   0.00000    -16.555514
   0.05153    -16.555506
   0.10305    -16.555535
   0.15458    -16.555589
   0.20610    -16.555617
   0.20610    -16.555617
   0.24892    -16.554294
   0.29174    -16.550608
   0.33456    -16.545003
   0.37738    -16.537718
   0.42020    -16.529013
   0.46302    -16.519220
   0.50584    -16.508825
   0.54866    -16.498330
   0.59147    -16.483733
   0.63429    -16.456976
   0.67711    -16.458482
   0.71993    -16.459951
   0.76275    -16.459267
   0.80557    -16.454630
   0.84839    -16.450453
   0.89121    -16.446687
   0.93403    -16.443170
   0.97685    -16.439866
   1.01967    -16.436785
   1.06249    -16.433947
   1.10531    -16.431424
   1.14812    -16.429447
   1.19094    -16.428359
   1.23376    -16.428924
   1.27658    -16.431150
   1.27658    -16.431154
   1.32260    -16.429189
   1.36863    -16.423889
   1.41465    -16.418156
   1.46067    -16.412346
   1.50669    -16.406969
   1.55271    -16.405326
   1.59874    -16.404326
   1.64476    -16.403516
   1.69078    -16.402905
   1.73680    -16.402459
   1.78282    -16.402193
   1.82885    -16.402104
   1.82885    -16.402104
   1.87155    -16.402590
   1.91425    -16.404069
   1.95695    -16.406524
   1.99965    -16.409925
   2.04235    -16.414213
   2.08505    -16.419297
   2.12775    -16.425060
   2.17045    -16.431308
   2.21315    -16.437690
   2.25585    -16.443685
   2.29855    -16.448479
   2.34125    -16.451499
   2.38395    -16.486408
   2.42665    -16.503959
   2.46935    -16.512920
   2.51205    -16.521875
   2.55475    -16.530451
   2.59745    -16.538323
   2.64015    -16.545152
   2.68285    -16.550586
   2.72555    -16.554202
   2.76826    -16.555514
   2.76826    -16.555514
   2.81008    -16.554250
   2.85191    -16.550728
   2.89374    -16.545356
   2.93556    -16.538388
   2.97739    -16.530045
   3.01922    -16.520571
   3.06105    -16.510475
   3.10287    -16.500218
   3.14470    -16.489909
   3.18653    -16.456722
   3.22835    -16.458048
   3.27018    -16.459561
   3.31201    -16.460336
   3.35383    -16.456107
   3.39566    -16.451884
   3.43749    -16.448062
   3.47932    -16.444554
   3.52114    -16.441251
   3.56297    -16.438153
   3.60480    -16.435244
   3.64662    -16.432621
   3.68845    -16.430384
   3.73028    -16.428773
   3.77211    -16.428348
   3.81393    -16.429766
   3.85576    -16.431338
   3.85576    -16.431336
   3.90036    -16.427504
   3.94497    -16.422150
   3.98957    -16.416536
   4.03417    -16.410931
   4.07878    -16.406371
   4.12338    -16.405114
   4.16798    -16.404171
   4.21259    -16.403423
   4.25719    -16.402824
   4.30179    -16.402408
   4.34640    -16.402160
   4.39100    -16.402091
   4.39100    -16.402091
   4.43404    -16.402580
   4.47708    -16.404062
   4.52013    -16.406524
   4.56317    -16.409928
   4.60621    -16.414215
   4.64925    -16.419301
   4.69229    -16.425082
   4.73533    -16.431322
   4.77838    -16.437718
   4.82142    -16.443712
   4.86446    -16.448507
   4.90750    -16.451491
   4.95054    -16.486392
   4.99358    -16.504012
   5.03662    -16.512954
   5.07967    -16.521894
   5.12271    -16.530478
   5.16575    -16.538349
   5.20879    -16.545164
   5.25183    -16.550583
   5.29487    -16.554203
   5.33792    -16.555514
 
# Band-Index:   10
   5.33792    -16.433667
   5.29487    -16.434156
   5.25183    -16.435543
   5.20879    -16.437625
   5.16575    -16.440158
   5.12271    -16.442906
   5.07967    -16.445702
   5.03662    -16.448218
   4.99358    -16.450173
   4.95054    -16.450771
   4.90750    -16.420335
   4.86446    -16.416752
   4.82142    -16.412745
   4.77838    -16.408400
   4.73533    -16.403880
   4.69229    -16.399343
   4.64925    -16.394948
   4.60621    -16.390871
   4.56317    -16.387268
   4.52013    -16.384290
   4.47708    -16.382085
   4.43404    -16.380729
   4.39100    -16.380275
   4.39100    -16.380275
   4.34640    -16.380976
   4.30179    -16.382986
   4.25719    -16.386122
   4.21259    -16.390114
   4.16798    -16.394739
   4.12338    -16.399808
   4.07878    -16.405000
   4.03417    -16.407254
   3.98957    -16.408612
   3.94497    -16.409973
   3.90036    -16.411182
   3.85576    -16.411839
   3.85576    -16.411842
   3.81393    -16.411284
   3.77211    -16.409004
   3.73028    -16.405398
   3.68845    -16.401531
   3.64662    -16.398050
   3.60480    -16.395376
   3.56297    -16.393732
   3.52114    -16.393179
   3.47932    -16.393841
   3.43749    -16.395676
   3.39566    -16.398576
   3.35383    -16.402358
   3.31201    -16.406768
   3.27018    -16.411442
   3.22835    -16.415993
   3.18653    -16.420081
   3.14470    -16.452783
   3.10287    -16.450754
   3.06105    -16.448183
   3.01922    -16.445468
   2.97739    -16.442680
   2.93556    -16.439954
   2.89374    -16.437492
   2.85191    -16.435467
   2.81008    -16.434146
   2.76826    -16.433667
   2.76826    -16.433667
   2.72555    -16.434156
   2.68285    -16.435549
   2.64015    -16.437618
   2.59745    -16.440143
   2.55475    -16.442920
   2.51205    -16.445704
   2.46935    -16.448209
   2.42665    -16.450181
   2.38395    -16.450818
   2.34125    -16.420333
   2.29855    -16.416728
   2.25585    -16.412735
   2.21315    -16.408392
   2.17045    -16.403877
   2.12775    -16.399331
   2.08505    -16.394932
   2.04235    -16.390861
   1.99965    -16.387282
   1.95695    -16.384317
   1.91425    -16.382115
   1.87155    -16.380750
   1.82885    -16.380284
   1.82885    -16.380284
   1.78282    -16.381026
   1.73680    -16.383170
   1.69078    -16.386478
   1.64476    -16.390679
   1.59874    -16.395529
   1.55271    -16.400812
   1.50669    -16.405900
   1.46067    -16.407594
   1.41465    -16.408992
   1.36863    -16.410362
   1.32260    -16.411486
   1.27658    -16.411799
   1.27658    -16.411793
   1.23376    -16.410510
   1.19094    -16.407450
   1.14812    -16.403542
   1.10531    -16.399709
   1.06249    -16.396530
   1.01967    -16.394326
   0.97685    -16.393268
   0.93403    -16.393438
   0.89121    -16.394836
   0.84839    -16.397404
   0.80557    -16.401005
   0.76275    -16.405361
   0.71993    -16.410095
   0.67711    -16.414837
   0.63429    -16.419197
   0.59147    -16.452698
   0.54866    -16.451158
   0.50584    -16.448606
   0.46302    -16.445812
   0.42020    -16.442971
   0.37738    -16.440180
   0.33456    -16.437639
   0.29174    -16.435527
   0.24892    -16.434134
   0.20610    -16.433675
   0.20610    -16.433675
   0.15458    -16.433660
   0.10305    -16.433665
   0.05153    -16.433686
   0.00000    -16.433667
 
# Band-Index:   11
   0.00000    -16.433667
   0.05153    -16.433686
   0.10305    -16.433665
   0.15458    -16.433660
   0.20610    -16.433675
   0.20610    -16.433675
   0.24892    -16.433584
   0.29174    -16.433348
   0.33456    -16.432910
   0.37738    -16.432214
   0.42020    -16.431258
   0.46302    -16.429945
   0.50584    -16.428202
   0.54866    -16.425891
   0.59147    -16.422887
   0.63429    -16.397260
   0.67711    -16.309684
   0.71993    -16.221353
   0.76275    -16.134307
   0.80557    -16.050378
   0.84839    -15.971201
   0.89121    -15.898227
   0.93403    -15.832567
   0.97685    -15.774985
   1.01967    -15.725908
   1.06249    -15.685406
   1.10531    -15.653292
   1.14812    -15.629168
   1.19094    -15.612473
   1.23376    -15.602523
   1.27658    -15.598515
   1.27658    -15.598516
   1.32260    -15.599851
   1.36863    -15.605951
   1.41465    -15.615683
   1.46067    -15.627935
   1.50669    -15.641632
   1.55271    -15.655772
   1.59874    -15.669436
   1.64476    -15.681807
   1.69078    -15.692202
   1.73680    -15.700044
   1.78282    -15.704923
   1.82885    -15.706579
   1.82885    -15.706579
   1.87155    -15.712657
   1.91425    -15.730815
   1.95695    -15.760772
   1.99965    -15.802063
   2.04235    -15.853985
   2.08505    -15.915564
   2.12775    -15.985569
   2.17045    -16.062506
   2.21315    -16.144682
   2.25585    -16.230268
   2.29855    -16.317357
   2.34125    -16.403795
   2.38395    -16.423479
   2.42665    -16.426107
   2.46935    -16.428258
   2.51205    -16.429941
   2.55475    -16.431239
   2.59745    -16.432212
   2.64015    -16.432908
   2.68285    -16.433332
   2.72555    -16.433586
   2.76826    -16.433667
   2.76826    -16.433667
   2.81008    -16.433588
   2.85191    -16.433353
   2.89374    -16.432946
   2.93556    -16.432296
   2.97739    -16.431406
   3.01922    -16.430166
   3.06105    -16.428505
   3.10287    -16.426340
   3.14470    -16.423553
   3.18653    -16.417670
   3.22835    -16.332717
   3.27018    -16.246329
   3.31201    -16.160684
   3.35383    -16.077491
   3.39566    -15.998345
   3.43749    -15.924670
   3.47932    -15.857628
   3.52114    -15.798071
   3.56297    -15.746512
   3.60480    -15.703142
   3.64662    -15.667899
   3.68845    -15.640504
   3.73028    -15.620489
   3.77211    -15.607275
   3.81393    -15.600162
   3.85576    -15.598383
   3.85576    -15.598383
   3.90036    -15.601450
   3.94497    -15.608624
   3.98957    -15.618881
   4.03417    -15.631217
   4.07878    -15.644668
   4.12338    -15.658341
   4.16798    -15.671416
   4.21259    -15.683175
   4.25719    -15.692996
   4.30179    -15.700382
   4.34640    -15.704967
   4.39100    -15.706521
   4.39100    -15.706521
   4.43404    -15.712600
   4.47708    -15.730747
   4.52013    -15.760690
   4.56317    -15.801962
   4.60621    -15.853851
   4.64925    -15.915398
   4.69229    -15.985374
   4.73533    -16.062287
   4.77838    -16.144453
   4.82142    -16.230043
   4.86446    -16.317135
   4.90750    -16.403575
   4.95054    -16.423463
   4.99358    -16.426121
   5.03662    -16.428255
   5.07967    -16.429968
   5.12271    -16.431242
   5.16575    -16.432220
   5.20879    -16.432912
   5.25183    -16.433338
   5.29487    -16.433586
   5.33792    -16.433667
 
# Band-Index:   12
   5.33792    -16.044006
   5.29487    -16.040374
   5.25183    -16.029534
   5.20879    -16.011620
   5.16575    -15.986835
   5.12271    -15.955443
   5.07967    -15.917796
   5.03662    -15.874257
   4.99358    -15.825284
   4.95054    -15.771361
   4.90750    -15.713090
   4.86446    -15.651134
   4.82142    -15.586248
   4.77838    -15.519335
   4.73533    -15.451503
   4.69229    -15.384137
   4.64925    -15.318924
   4.60621    -15.257894
   4.56317    -15.203314
   4.52013    -15.157584
   4.47708    -15.122961
   4.43404    -15.101346
   4.39100    -15.094017
   4.39100    -15.094017
   4.34640    -15.091090
   4.30179    -15.082458
   4.25719    -15.068545
   4.21259    -15.049968
   4.16798    -15.027638
   4.12338    -15.002737
   4.07878    -14.976627
   4.03417    -14.950928
   3.98957    -14.927385
   3.94497    -14.907922
   3.90036    -14.894436
   3.85576    -14.888750
   3.85576    -14.888750
   3.81393    -14.891959
   3.77211    -14.904466
   3.73028    -14.926871
   3.68845    -14.959358
   3.64662    -15.001494
   3.60480    -15.052427
   3.56297    -15.110851
   3.52114    -15.175109
   3.47932    -15.243543
   3.43749    -15.314411
   3.39566    -15.386199
   3.35383    -15.457604
   3.31201    -15.527604
   3.27018    -15.595360
   3.22835    -15.660189
   3.18653    -15.721492
   3.14470    -15.778777
   3.10287    -15.831545
   3.06105    -15.879316
   3.01922    -15.921677
   2.97739    -15.958249
   2.93556    -15.988671
   2.89374    -16.012674
   2.85191    -16.030010
   2.81008    -16.040495
   2.76826    -16.044006
   2.76826    -16.044006
   2.72555    -16.040367
   2.68285    -16.029508
   2.64015    -16.011558
   2.59745    -15.986708
   2.55475    -15.955239
   2.51205    -15.917501
   2.46935    -15.873848
   2.42665    -15.824753
   2.38395    -15.770724
   2.34125    -15.712352
   2.29855    -15.650318
   2.25585    -15.585399
   2.21315    -15.518500
   2.17045    -15.450730
   2.12775    -15.383445
   2.08505    -15.318338
   2.04235    -15.257423
   1.99965    -15.202951
   1.95695    -15.157308
   1.91425    -15.122772
   1.87155    -15.101206
   1.82885    -15.093875
   1.82885    -15.093875
   1.78282    -15.090786
   1.73680    -15.081644
   1.69078    -15.066877
   1.64476    -15.047253
   1.59874    -15.023776
   1.55271    -14.997778
   1.50669    -14.970800
   1.46067    -14.944661
   1.41465    -14.921310
   1.36863    -14.902891
   1.32260    -14.891471
   1.27658    -14.888987
   1.27658    -14.888987
   1.23376    -14.896150
   1.19094    -14.913393
   1.14812    -14.941181
   1.10531    -14.979379
   1.06249    -15.027320
   1.01967    -15.083827
   0.97685    -15.147333
   0.93403    -15.216007
   0.89121    -15.288000
   0.84839    -15.361567
   0.80557    -15.435253
   0.76275    -15.507833
   0.71993    -15.578317
   0.67711    -15.645916
   0.63429    -15.709981
   0.59147    -15.769889
   0.54866    -15.825116
   0.50584    -15.875150
   0.46302    -15.919513
   0.42020    -15.957801
   0.37738    -15.989660
   0.33456    -16.014780
   0.29174    -16.032908
   0.24892    -16.043866
   0.20610    -16.047540
   0.20610    -16.047540
   0.15458    -16.047019
   0.10305    -16.045781
   0.05153    -16.044523
   0.00000    -16.044006
 
# Band-Index:   13
   0.00000    -15.452104
   0.05153    -15.451059
   0.10305    -15.448518
   0.15458    -15.445977
   0.20610    -15.444921
   0.20610    -15.444921
   0.24892    -15.441355
   0.29174    -15.430642
   0.33456    -15.412728
   0.37738    -15.387541
   0.42020    -15.355009
   0.46302    -15.315085
   0.50584    -15.267766
   0.54866    -15.213134
   0.59147    -15.151392
   0.63429    -15.082871
   0.67711    -15.008051
   0.71993    -14.927609
   0.76275    -14.842396
   0.80557    -14.753478
   0.84839    -14.662092
   0.89121    -14.569666
   0.93403    -14.477799
   0.97685    -14.388250
   1.01967    -14.302961
   1.06249    -14.224012
   1.10531    -14.153646
   1.14812    -14.094244
   1.19094    -14.048223
   1.23376    -14.017834
   1.27658    -14.004526
   1.27658    -14.004527
   1.32260    -14.009381
   1.36863    -14.032041
   1.41465    -14.068768
   1.46067    -14.115152
   1.50669    -14.166890
   1.55271    -14.220102
   1.59874    -14.271408
   1.64476    -14.317853
   1.69078    -14.356874
   1.73680    -14.386383
   1.78282    -14.404766
   1.82885    -14.411011
   1.82885    -14.411011
   1.87155    -14.418887
   1.91425    -14.442089
   1.95695    -14.479387
   1.99965    -14.528952
   2.04235    -14.588551
   2.08505    -14.655791
   2.12775    -14.728301
   2.17045    -14.803840
   2.21315    -14.880375
   2.25585    -14.956099
   2.29855    -15.029456
   2.34125    -15.099158
   2.38395    -15.164129
   2.42665    -15.223516
   2.46935    -15.276673
   2.51205    -15.323139
   2.55475    -15.362598
   2.59745    -15.394906
   2.64015    -15.419991
   2.68285    -15.437858
   2.72555    -15.448548
   2.76826    -15.452104
   2.76826    -15.452104
   2.81008    -15.448680
   2.85191    -15.438376
   2.89374    -15.421150
   2.93556    -15.396931
   2.97739    -15.365656
   3.01922    -15.327268
   3.06105    -15.281754
   3.10287    -15.229190
   3.14470    -15.169736
   3.18653    -15.103684
   3.22835    -15.031488
   3.27018    -14.953730
   3.31201    -14.871185
   3.35383    -14.784782
   3.39566    -14.695674
   3.43749    -14.605136
   3.47932    -14.514613
   3.52114    -14.425694
   3.56297    -14.340129
   3.60480    -14.259786
   3.64662    -14.186687
   3.68845    -14.122975
   3.73028    -14.070894
   3.77211    -14.032665
   3.81393    -14.010094
   3.85576    -14.004070
   3.85576    -14.004070
   3.90036    -14.015245
   3.94497    -14.042092
   3.98957    -14.080896
   4.03417    -14.127612
   4.07878    -14.178396
   4.12338    -14.229841
   4.16798    -14.278930
   4.21259    -14.323055
   4.25719    -14.359947
   4.30179    -14.387745
   4.34640    -14.405022
   4.39100    -14.410889
   4.39100    -14.410889
   4.43404    -14.418747
   4.47708    -14.441897
   4.52013    -14.479105
   4.56317    -14.528536
   4.60621    -14.587977
   4.64925    -14.655055
   4.69229    -14.727418
   4.73533    -14.802837
   4.77838    -14.879291
   4.82142    -14.954988
   4.86446    -15.028373
   4.90750    -15.098143
   4.95054    -15.163223
   4.99358    -15.222754
   5.03662    -15.276061
   5.07967    -15.322679
   5.12271    -15.362277
   5.16575    -15.394702
   5.20879    -15.419878
   5.25183    -15.437808
   5.29487    -15.448536
   5.33792    -15.452104
 
# Band-Index:   14
   5.33792    -14.311145
   5.29487    -14.305734
   5.25183    -14.289675
   5.20879    -14.263466
   5.16575    -14.227886
   5.12271    -14.183938
   5.07967    -14.132791
   5.03662    -14.075679
   4.99358    -14.013943
   4.95054    -13.948896
   4.90750    -13.881926
   4.86446    -13.814369
   4.82142    -13.747587
   4.77838    -13.682900
   4.73533    -13.621596
   4.69229    -13.564930
   4.64925    -13.514011
   4.60621    -13.469833
   4.56317    -13.433080
   4.52013    -13.404269
   4.47708    -13.383671
   4.43404    -13.371357
   4.39100    -13.367277
   4.39100    -13.367277
   4.34640    -13.367545
   4.30179    -13.368425
   4.25719    -13.370055
   4.21259    -13.372569
   4.16798    -13.376172
   4.12338    -13.381026
   4.07878    -13.387116
   4.03417    -13.394271
   3.98957    -13.401905
   3.94497    -13.409021
   3.90036    -13.414288
   3.85576    -13.416486
   3.85576    -13.416486
   3.81393    -13.415488
   3.77211    -13.412428
   3.73028    -13.409239
   3.68845    -13.408382
   3.64662    -13.412109
   3.60480    -13.422205
   3.56297    -13.439847
   3.52114    -13.465485
   3.47932    -13.499211
   3.43749    -13.540547
   3.39566    -13.588763
   3.35383    -13.642866
   3.31201    -13.701730
   3.27018    -13.764117
   3.22835    -13.828733
   3.18653    -13.894215
   3.14470    -13.959256
   3.10287    -14.022463
   3.06105    -14.082500
   3.01922    -14.138028
   2.97739    -14.187740
   2.93556    -14.230414
   2.89374    -14.264936
   2.85191    -14.290345
   2.81008    -14.305906
   2.76826    -14.311145
   2.76826    -14.311145
   2.72555    -14.305719
   2.68285    -14.289610
   2.64015    -14.263324
   2.59745    -14.227636
   2.55475    -14.183557
   2.51205    -14.132252
   2.46935    -14.074982
   2.42665    -14.013085
   2.38395    -13.947909
   2.34125    -13.880811
   2.29855    -13.813186
   2.25585    -13.746399
   2.21315    -13.681766
   2.17045    -13.620608
   2.12775    -13.564125
   2.08505    -13.513423
   2.04235    -13.469438
   1.99965    -13.432897
   1.95695    -13.404280
   1.91425    -13.383792
   1.87155    -13.371510
   1.82885    -13.367409
   1.82885    -13.367409
   1.78282    -13.367718
   1.73680    -13.368678
   1.69078    -13.370424
   1.64476    -13.373159
   1.59874    -13.377039
   1.55271    -13.382260
   1.50669    -13.388790
   1.46067    -13.396328
   1.41465    -13.404141
   1.36863    -13.411030
   1.32260    -13.415480
   1.27658    -13.416403
   1.27658    -13.416403
   1.23376    -13.414283
   1.19094    -13.410776
   1.14812    -13.408325
   1.10531    -13.409469
   1.06249    -13.416457
   1.01967    -13.430915
   0.97685    -13.453730
   0.93403    -13.485168
   0.89121    -13.524937
   0.84839    -13.572376
   0.80557    -13.626498
   0.76275    -13.686108
   0.71993    -13.749856
   0.67711    -13.816318
   0.63429    -13.884058
   0.59147    -13.951590
   0.54866    -14.017451
   0.50584    -14.080192
   0.46302    -14.138347
   0.42020    -14.190523
   0.37738    -14.235389
   0.33456    -14.271733
   0.29174    -14.298506
   0.24892    -14.314918
   0.20610    -14.320450
   0.20610    -14.320450
   0.15458    -14.319092
   0.10305    -14.315810
   0.05153    -14.312515
   0.00000    -14.311145
 
# Band-Index:   15
   0.00000    -13.532922
   0.05153    -13.532045
   0.10305    -13.529941
   0.15458    -13.527844
   0.20610    -13.526977
   0.20610    -13.526977
   0.24892    -13.523844
   0.29174    -13.514495
   0.33456    -13.499092
   0.37738    -13.477893
   0.42020    -13.451270
   0.46302    -13.419693
   0.50584    -13.383740
   0.54866    -13.344079
   0.59147    -13.301476
   0.63429    -13.256762
   0.67711    -13.210825
   0.71993    -13.164591
   0.76275    -13.118979
   0.80557    -13.074871
   0.84839    -13.033096
   0.89121    -12.994345
   0.93403    -12.959178
   0.97685    -12.928013
   1.01967    -12.901127
   1.06249    -12.878630
   1.10531    -12.860524
   1.14812    -12.846704
   1.19094    -12.836977
   1.23376    -12.831080
   1.27658    -12.828665
   1.27658    -12.828665
   1.32260    -12.829496
   1.36863    -12.833320
   1.41465    -12.839510
   1.46067    -12.847402
   1.50669    -12.856317
   1.55271    -12.865588
   1.59874    -12.874591
   1.64476    -12.882767
   1.69078    -12.889640
   1.73680    -12.894827
   1.78282    -12.898051
   1.82885    -12.899143
   1.82885    -12.899143
   1.87155    -12.902215
   1.91425    -12.911405
   1.95695    -12.926637
   1.99965    -12.947756
   2.04235    -12.974471
   2.08505    -13.006344
   2.12775    -13.042771
   2.17045    -13.082989
   2.21315    -13.126111
   2.25585    -13.171159
   2.29855    -13.217106
   2.34125    -13.262923
   2.38395    -13.307608
   2.42665    -13.350212
   2.46935    -13.389870
   2.51205    -13.425813
   2.55475    -13.457361
   2.59745    -13.483948
   2.64015    -13.505108
   2.68285    -13.520475
   2.72555    -13.529798
   2.76826    -13.532922
   2.76826    -13.532922
   2.81008    -13.529912
   2.85191    -13.520925
   2.89374    -13.506106
   2.93556    -13.485690
   2.97739    -13.460007
   3.01922    -13.429481
   3.06105    -13.394636
   3.10287    -13.356086
   3.14470    -13.314523
   3.18653    -13.270722
   3.22835    -13.225523
   3.27018    -13.179792
   3.31201    -13.134418
   3.35383    -13.090268
   3.39566    -13.048152
   3.43749    -13.008788
   3.47932    -12.972766
   3.52114    -12.940525
   3.56297    -12.912363
   3.60480    -12.888416
   3.64662    -12.868717
   3.68845    -12.853184
   3.73028    -12.841655
   3.77211    -12.833911
   3.81393    -12.829667
   3.85576    -12.828588
   3.85576    -12.828588
   3.90036    -12.830488
   3.94497    -12.835015
   3.98957    -12.841582
   4.03417    -12.849577
   4.07878    -12.858380
   4.12338    -12.867391
   4.16798    -12.876047
   4.21259    -12.883850
   4.25719    -12.890370
   4.30179    -12.895274
   4.34640    -12.898316
   4.39100    -12.899346
   4.39100    -12.899346
   4.43404    -12.902409
   4.47708    -12.911577
   4.52013    -12.926760
   4.56317    -12.947795
   4.60621    -12.974391
   4.64925    -13.006121
   4.69229    -13.042402
   4.73533    -13.082486
   4.77838    -13.125505
   4.82142    -13.170487
   4.86446    -13.216412
   4.90750    -13.262249
   4.95054    -13.306987
   4.99358    -13.349677
   5.03662    -13.389431
   5.07967    -13.425476
   5.12271    -13.457120
   5.16575    -13.483791
   5.20879    -13.505018
   5.25183    -13.520434
   5.29487    -13.529788
   5.33792    -13.532922
 
# Band-Index:   16
   5.33792    -10.182410
   5.29487    -10.181879
   5.25183    -10.180482
   5.20879    -10.178154
   5.16575    -10.174693
   5.12271    -10.170183
   5.07967    -10.164652
   5.03662    -10.157819
   4.99358    -10.149782
   4.95054    -10.140502
   4.90750    -10.130370
   4.86446    -10.120121
   4.82142    -10.112138
   4.77838    -10.104524
   4.73533    -10.097498
   4.69229    -10.091159
   4.64925    -10.085691
   4.60621    -10.081060
   4.56317    -10.077291
   4.52013    -10.074380
   4.47708    -10.072279
   4.43404    -10.071059
   4.39100    -10.070704
   4.39100    -10.070704
   4.34640    -10.072273
   4.30179    -10.075707
   4.25719    -10.079470
   4.21259    -10.083250
   4.16798    -10.086691
   4.12338    -10.089850
   4.07878    -10.092464
   4.03417    -10.094578
   3.98957    -10.096122
   3.94497    -10.097157
   3.90036    -10.097725
   3.85576    -10.097826
   3.85576    -10.097830
   3.81393    -10.097821
   3.77211    -10.097702
   3.73028    -10.097584
   3.68845    -10.097704
   3.64662    -10.098015
   3.60480    -10.098740
   3.56297    -10.100025
   3.52114    -10.101723
   3.47932    -10.104056
   3.43749    -10.106858
   3.39566    -10.110350
   3.35383    -10.114517
   3.31201    -10.119329
   3.27018    -10.124744
   3.22835    -10.130639
   3.18653    -10.136856
   3.14470    -10.143522
   3.10287    -10.150449
   3.06105    -10.157619
   3.01922    -10.164476
   2.97739    -10.170291
   2.93556    -10.174788
   2.89374    -10.178189
   2.85191    -10.180493
   2.81008    -10.181938
   2.76826    -10.182410
   2.76826    -10.182410
   2.72555    -10.181878
   2.68285    -10.180533
   2.64015    -10.178148
   2.59745    -10.174683
   2.55475    -10.170143
   2.51205    -10.164536
   2.46935    -10.157746
   2.42665    -10.149738
   2.38395    -10.140558
   2.34125    -10.130367
   2.29855    -10.120065
   2.25585    -10.112000
   2.21315    -10.104458
   2.17045    -10.097478
   2.12775    -10.091211
   2.08505    -10.085765
   2.04235    -10.081108
   1.99965    -10.077294
   1.95695    -10.074401
   1.91425    -10.072371
   1.87155    -10.071206
   1.82885    -10.070838
   1.82885    -10.070838
   1.78282    -10.072523
   1.73680    -10.076009
   1.69078    -10.079860
   1.64476    -10.083711
   1.59874    -10.087179
   1.55271    -10.090317
   1.50669    -10.092922
   1.46067    -10.095020
   1.41465    -10.096470
   1.36863    -10.097411
   1.32260    -10.097815
   1.27658    -10.097847
   1.27658    -10.097839
   1.23376    -10.097781
   1.19094    -10.097608
   1.14812    -10.097657
   1.10531    -10.097805
   1.06249    -10.098334
   1.01967    -10.099306
   0.97685    -10.100875
   0.93403    -10.102970
   0.89121    -10.105675
   0.84839    -10.109011
   0.80557    -10.113049
   0.76275    -10.117822
   0.71993    -10.123134
   0.67711    -10.129035
   0.63429    -10.135460
   0.59147    -10.142092
   0.54866    -10.149164
   0.50584    -10.156502
   0.46302    -10.163588
   0.42020    -10.169683
   0.37738    -10.174509
   0.33456    -10.178104
   0.29174    -10.180340
   0.24892    -10.181691
   0.20610    -10.182226
   0.20610    -10.182226
   0.15458    -10.182204
   0.10305    -10.182276
   0.05153    -10.182409
   0.00000    -10.182410
 
# Band-Index:   17
   0.00000    -10.182410
   0.05153    -10.182409
   0.10305    -10.182276
   0.15458    -10.182204
   0.20610    -10.182226
   0.20610    -10.182226
   0.24892    -10.181547
   0.29174    -10.179638
   0.33456    -10.176457
   0.37738    -10.172100
   0.42020    -10.166734
   0.46302    -10.160403
   0.50584    -10.152973
   0.54866    -10.143631
   0.59147    -10.132036
   0.63429    -10.118219
   0.67711    -10.102193
   0.71993    -10.084098
   0.76275    -10.064102
   0.80557    -10.042698
   0.84839    -10.020652
   0.89121     -9.998733
   0.93403     -9.977709
   0.97685     -9.958702
   1.01967     -9.949556
   1.06249     -9.945270
   1.10531     -9.941028
   1.14812     -9.936580
   1.19094     -9.932049
   1.23376     -9.927998
   1.27658     -9.925442
   1.27658     -9.925455
   1.32260     -9.926980
   1.36863     -9.934826
   1.41465     -9.947568
   1.46067     -9.962892
   1.50669     -9.978911
   1.55271     -9.994798
   1.59874    -10.009722
   1.64476    -10.023313
   1.69078    -10.035059
   1.73680    -10.044706
   1.78282    -10.051664
   1.82885    -10.054463
   1.82885    -10.054463
   1.87155    -10.054771
   1.91425    -10.055826
   1.95695    -10.057704
   1.99965    -10.060754
   2.04235    -10.065142
   2.08505    -10.070951
   2.12775    -10.078411
   2.17045    -10.087370
   2.21315    -10.097533
   2.25585    -10.108478
   2.29855    -10.119552
   2.34125    -10.128456
   2.38395    -10.136878
   2.42665    -10.145069
   2.46935    -10.152832
   2.51205    -10.160143
   2.55475    -10.166537
   2.59745    -10.172074
   2.64015    -10.176530
   2.68285    -10.179671
   2.72555    -10.181684
   2.76826    -10.182410
   2.76826    -10.182410
   2.81008    -10.181730
   2.85191    -10.179840
   2.89374    -10.176800
   2.93556    -10.172583
   2.97739    -10.167447
   3.01922    -10.161372
   3.06105    -10.154297
   3.10287    -10.145495
   3.14470    -10.134598
   3.18653    -10.121525
   3.22835    -10.106529
   3.27018    -10.089352
   3.31201    -10.070398
   3.35383    -10.049919
   3.39566    -10.028625
   3.43749    -10.007022
   3.47932     -9.986025
   3.52114     -9.966401
   3.56297     -9.951988
   3.60480     -9.947138
   3.64662     -9.943026
   3.68845     -9.938823
   3.73028     -9.934386
   3.77211     -9.930203
   3.81393     -9.926637
   3.85576     -9.925342
   3.85576     -9.925335
   3.90036     -9.929004
   3.94497     -9.938457
   3.98957     -9.951747
   4.03417     -9.966961
   4.07878     -9.982543
   4.12338     -9.997816
   4.16798    -10.012089
   4.21259    -10.025053
   4.25719    -10.036215
   4.30179    -10.045292
   4.34640    -10.052020
   4.39100    -10.054778
   4.39100    -10.054778
   4.43404    -10.054995
   4.47708    -10.056038
   4.52013    -10.057908
   4.56317    -10.060849
   4.60621    -10.065148
   4.64925    -10.070935
   4.69229    -10.078366
   4.73533    -10.087316
   4.77838    -10.097501
   4.82142    -10.108479
   4.86446    -10.119588
   4.90750    -10.128389
   4.95054    -10.136848
   4.99358    -10.145060
   5.03662    -10.152863
   5.07967    -10.160181
   5.12271    -10.166533
   5.16575    -10.172148
   5.20879    -10.176549
   5.25183    -10.179699
   5.29487    -10.181684
   5.33792    -10.182410
 
# Band-Index:   18
   5.33792    -10.080152
   5.29487    -10.079361
   5.25183    -10.077100
   5.20879    -10.073342
   5.16575    -10.068082
   5.12271    -10.061414
   5.07967    -10.053461
   5.03662    -10.044234
   4.99358    -10.033880
   4.95054    -10.022279
   4.90750    -10.009668
   4.86446     -9.996062
   4.82142     -9.981181
   4.77838     -9.965094
   4.73533     -9.947907
   4.69229     -9.930278
   4.64925     -9.913193
   4.60621     -9.898217
   4.56317     -9.886446
   4.52013     -9.878179
   4.47708     -9.872912
   4.43404     -9.870026
   4.39100     -9.869132
   4.39100     -9.869132
   4.34640     -9.868729
   4.30179     -9.867716
   4.25719     -9.866332
   4.21259     -9.864993
   4.16798     -9.863928
   4.12338     -9.863782
   4.07878     -9.865047
   4.03417     -9.868901
   3.98957     -9.874522
   3.94497     -9.879675
   3.90036     -9.882220
   3.85576     -9.881311
   3.85576     -9.881319
   3.81393     -9.883585
   3.77211     -9.889806
   3.73028     -9.897783
   3.68845     -9.907480
   3.64662     -9.918895
   3.60480     -9.932260
   3.56297     -9.947276
   3.52114     -9.954720
   3.47932     -9.959535
   3.43749     -9.964879
   3.39566     -9.971073
   3.35383     -9.978275
   3.31201     -9.986612
   3.27018     -9.995851
   3.22835    -10.005767
   3.18653    -10.015993
   3.14470    -10.026301
   3.10287    -10.036376
   3.06105    -10.045842
   3.01922    -10.054495
   2.97739    -10.062214
   2.93556    -10.068553
   2.89374    -10.073594
   2.85191    -10.077211
   2.81008    -10.079399
   2.76826    -10.080152
   2.76826    -10.080152
   2.72555    -10.079364
   2.68285    -10.077123
   2.64015    -10.073344
   2.59745    -10.068052
   2.55475    -10.061423
   2.51205    -10.053516
   2.46935    -10.044316
   2.42665    -10.033944
   2.38395    -10.022368
   2.34125    -10.009717
   2.29855     -9.995958
   2.25585     -9.981005
   2.21315     -9.964799
   2.17045     -9.947634
   2.12775     -9.929958
   2.08505     -9.912940
   2.04235     -9.898071
   1.99965     -9.886398
   1.95695     -9.878145
   1.91425     -9.872879
   1.87155     -9.869965
   1.82885     -9.869096
   1.82885     -9.869096
   1.78282     -9.868706
   1.73680     -9.867631
   1.69078     -9.866216
   1.64476     -9.864762
   1.59874     -9.863858
   1.55271     -9.863916
   1.50669     -9.865711
   1.46067     -9.870277
   1.41465     -9.876164
   1.36863     -9.880845
   1.32260     -9.882104
   1.27658     -9.881539
   1.27658     -9.881520
   1.23376     -9.886032
   1.19094     -9.893248
   1.14812     -9.902234
   1.10531     -9.912893
   1.06249     -9.925577
   1.01967     -9.940289
   0.97685     -9.952739
   0.93403     -9.957825
   0.89121     -9.963031
   0.84839     -9.968946
   0.80557     -9.976018
   0.76275     -9.984254
   0.71993     -9.993410
   0.67711    -10.003299
   0.63429    -10.013664
   0.59147    -10.024020
   0.54866    -10.034252
   0.50584    -10.043893
   0.46302    -10.052636
   0.42020    -10.060389
   0.37738    -10.066904
   0.33456    -10.072115
   0.29174    -10.075755
   0.24892    -10.077979
   0.20610    -10.078747
   0.20610    -10.078747
   0.15458    -10.078922
   0.10305    -10.079359
   0.05153    -10.079804
   0.00000    -10.080152
 
# Band-Index:   19
   0.00000     -9.861339
   0.05153     -9.861432
   0.10305     -9.861351
   0.15458     -9.861312
   0.20610     -9.861306
   0.20610     -9.861306
   0.24892     -9.861448
   0.29174     -9.861975
   0.33456     -9.862765
   0.37738     -9.863652
   0.42020     -9.864670
   0.46302     -9.865539
   0.50584     -9.866299
   0.54866     -9.866535
   0.59147     -9.866139
   0.63429     -9.865121
   0.67711     -9.863126
   0.71993     -9.860452
   0.76275     -9.857313
   0.80557     -9.854095
   0.84839     -9.851037
   0.89121     -9.848332
   0.93403     -9.846164
   0.97685     -9.844818
   1.01967     -9.844685
   1.06249     -9.846038
   1.10531     -9.849139
   1.14812     -9.853987
   1.19094     -9.860216
   1.23376     -9.867365
   1.27658     -9.872680
   1.27658     -9.872686
   1.32260     -9.871129
   1.36863     -9.867225
   1.41465     -9.863759
   1.46067     -9.860526
   1.50669     -9.856179
   1.55271     -9.850009
   1.59874     -9.843278
   1.64476     -9.837005
   1.69078     -9.831716
   1.73680     -9.827733
   1.78282     -9.825209
   1.82885     -9.824353
   1.82885     -9.824353
   1.87155     -9.824790
   1.91425     -9.826056
   1.95695     -9.828017
   1.99965     -9.830680
   2.04235     -9.833700
   2.08505     -9.839820
   2.12775     -9.848442
   2.17045     -9.855032
   2.21315     -9.859897
   2.25585     -9.863460
   2.29855     -9.865790
   2.34125     -9.867108
   2.38395     -9.867645
   2.42665     -9.867389
   2.46935     -9.866709
   2.51205     -9.865854
   2.55475     -9.864749
   2.59745     -9.863656
   2.64015     -9.862752
   2.68285     -9.862068
   2.72555     -9.861564
   2.76826     -9.861339
   2.76826     -9.861339
   2.81008     -9.861582
   2.85191     -9.862025
   2.89374     -9.862705
   2.93556     -9.863570
   2.97739     -9.864567
   3.01922     -9.865451
   3.06105     -9.866044
   3.10287     -9.866409
   3.14470     -9.866219
   3.18653     -9.865262
   3.22835     -9.863619
   3.27018     -9.861178
   3.31201     -9.858216
   3.35383     -9.855096
   3.39566     -9.852108
   3.43749     -9.849312
   3.47932     -9.846882
   3.52114     -9.845163
   3.56297     -9.844576
   3.60480     -9.845149
   3.64662     -9.847368
   3.68845     -9.851269
   3.73028     -9.856681
   3.77211     -9.863438
   3.81393     -9.870118
   3.85576     -9.872992
   3.85576     -9.872989
   3.90036     -9.869911
   3.94497     -9.866190
   3.98957     -9.862917
   4.03417     -9.859680
   4.07878     -9.855018
   4.12338     -9.848830
   4.16798     -9.842300
   4.21259     -9.836308
   4.25719     -9.831259
   4.30179     -9.827424
   4.34640     -9.825075
   4.39100     -9.824255
   4.39100     -9.824255
   4.43404     -9.824663
   4.47708     -9.825884
   4.52013     -9.827901
   4.56317     -9.830592
   4.60621     -9.833715
   4.64925     -9.840044
   4.69229     -9.848568
   4.73533     -9.855029
   4.77838     -9.859966
   4.82142     -9.863536
   4.86446     -9.865857
   4.90750     -9.866988
   4.95054     -9.867453
   4.99358     -9.867368
   5.03662     -9.866753
   5.07967     -9.865878
   5.12271     -9.864722
   5.16575     -9.863711
   5.20879     -9.862798
   5.25183     -9.862026
   5.29487     -9.861564
   5.33792     -9.861339
 
# Band-Index:   20
   5.33792     -9.861339
   5.29487     -9.861348
   5.25183     -9.861299
   5.20879     -9.861188
   5.16575     -9.860915
   5.12271     -9.860488
   5.07967     -9.860000
   5.03662     -9.859142
   4.99358     -9.858120
   4.95054     -9.856597
   4.90750     -9.854774
   4.86446     -9.852658
   4.82142     -9.850151
   4.77838     -9.847182
   4.73533     -9.843943
   4.69229     -9.840530
   4.64925     -9.837058
   4.60621     -9.829287
   4.56317     -9.816504
   4.52013     -9.803282
   4.47708     -9.791960
   4.43404     -9.784541
   4.39100     -9.781983
   4.39100     -9.781983
   4.34640     -9.780813
   4.30179     -9.777697
   4.25719     -9.772629
   4.21259     -9.765597
   4.16798     -9.756882
   4.12338     -9.746930
   4.07878     -9.736095
   4.03417     -9.725247
   3.98957     -9.715190
   3.94497     -9.706833
   3.90036     -9.701101
   3.85576     -9.698649
   3.85576     -9.698655
   3.81393     -9.700020
   3.77211     -9.705125
   3.73028     -9.713875
   3.68845     -9.726047
   3.64662     -9.740782
   3.60480     -9.757295
   3.56297     -9.774558
   3.52114     -9.791172
   3.47932     -9.806610
   3.43749     -9.819987
   3.39566     -9.831165
   3.35383     -9.839979
   3.31201     -9.846558
   3.27018     -9.851083
   3.22835     -9.854118
   3.18653     -9.856144
   3.14470     -9.857670
   3.10287     -9.858774
   3.06105     -9.859588
   3.01922     -9.860215
   2.97739     -9.860696
   2.93556     -9.860961
   2.89374     -9.861199
   2.85191     -9.861260
   2.81008     -9.861340
   2.76826     -9.861339
   2.76826     -9.861339
   2.72555     -9.861348
   2.68285     -9.861254
   2.64015     -9.861151
   2.59745     -9.860883
   2.55475     -9.860459
   2.51205     -9.859902
   2.46935     -9.859150
   2.42665     -9.858049
   2.38395     -9.856631
   2.34125     -9.854747
   2.29855     -9.852544
   2.25585     -9.850062
   2.21315     -9.847117
   2.17045     -9.843899
   2.12775     -9.840514
   2.08505     -9.837041
   2.04235     -9.828911
   1.99965     -9.816211
   1.95695     -9.803272
   1.91425     -9.792204
   1.87155     -9.784820
   1.82885     -9.782174
   1.82885     -9.782174
   1.78282     -9.781082
   1.73680     -9.777765
   1.69078     -9.772316
   1.64476     -9.764953
   1.59874     -9.755621
   1.55271     -9.745061
   1.50669     -9.733804
   1.46067     -9.722722
   1.41465     -9.712689
   1.36863     -9.704780
   1.32260     -9.699898
   1.27658     -9.698794
   1.27658     -9.698782
   1.23376     -9.701750
   1.19094     -9.708572
   1.14812     -9.719351
   1.10531     -9.733149
   1.06249     -9.749325
   1.01967     -9.766812
   0.97685     -9.784309
   0.93403     -9.800743
   0.89121     -9.815276
   0.84839     -9.827491
   0.80557     -9.837334
   0.76275     -9.844712
   0.71993     -9.849865
   0.67711     -9.853403
   0.63429     -9.855840
   0.59147     -9.857453
   0.54866     -9.858697
   0.50584     -9.859521
   0.46302     -9.860119
   0.42020     -9.860578
   0.37738     -9.860894
   0.33456     -9.861170
   0.29174     -9.861280
   0.24892     -9.861292
   0.20610     -9.861306
   0.20610     -9.861306
   0.15458     -9.861312
   0.10305     -9.861351
   0.05153     -9.861432
   0.00000     -9.861339
 
# Band-Index:   21
   0.00000     -8.118765
   0.05153     -8.105462
   0.10305     -8.065982
   0.15458     -8.018029
   0.20610     -8.018125
   0.20610     -8.018125
   0.24892     -8.017973
   0.29174     -8.017826
   0.33456     -8.017418
   0.37738     -8.016232
   0.42020     -8.014176
   0.46302     -8.011239
   0.50584     -8.007327
   0.54866     -8.002235
   0.59147     -7.996141
   0.63429     -7.989246
   0.67711     -7.981607
   0.71993     -7.974068
   0.76275     -7.968093
   0.80557     -7.973036
   0.84839     -8.029085
   0.89121     -8.118780
   0.93403     -8.209753
   0.97685     -8.292230
   1.01967     -8.361325
   1.06249     -8.414567
   1.10531     -8.451604
   1.14812     -8.473766
   1.19094     -8.483808
   1.23376     -8.486114
   1.27658     -8.485334
   1.27658     -8.485334
   1.32260     -8.486606
   1.36863     -8.494459
   1.41465     -8.511022
   1.46067     -8.535684
   1.50669     -8.565964
   1.55271     -8.598863
   1.59874     -8.631330
   1.64476     -8.660978
   1.69078     -8.685753
   1.73680     -8.704348
   1.78282     -8.715848
   1.82885     -8.719725
   1.82885     -8.719725
   1.87155     -8.705825
   1.91425     -8.664547
   1.95695     -8.597023
   1.99965     -8.505936
   2.04235     -8.395567
   2.08505     -8.272680
   2.12775     -8.147681
   2.17045     -8.037958
   2.21315     -7.984313
   2.25585     -7.984414
   2.29855     -7.992256
   2.34125     -8.001489
   2.38395     -8.011421
   2.42665     -8.022534
   2.46935     -8.035933
   2.51205     -8.052027
   2.55475     -8.069217
   2.59745     -8.085563
   2.64015     -8.099498
   2.68285     -8.110027
   2.72555     -8.116537
   2.76826     -8.118765
   2.76826     -8.118765
   2.81008     -8.116677
   2.85191     -8.110508
   2.89374     -8.100582
   2.93556     -8.087388
   2.97739     -8.071797
   3.01922     -8.055047
   3.06105     -8.038952
   3.10287     -8.025180
   3.14470     -8.013876
   3.18653     -8.003985
   3.22835     -7.994924
   3.27018     -7.986332
   3.31201     -7.979412
   3.35383     -7.980376
   3.39566     -8.016467
   3.43749     -8.091548
   3.47932     -8.177434
   3.52114     -8.260012
   3.56297     -8.332602
   3.60480     -8.391290
   3.64662     -8.434897
   3.68845     -8.463636
   3.73028     -8.479367
   3.77211     -8.485427
   3.81393     -8.485820
   3.85576     -8.485215
   3.85576     -8.485215
   3.90036     -8.488212
   3.94497     -8.498156
   3.98957     -8.516228
   4.03417     -8.541480
   4.07878     -8.571341
   4.12338     -8.603098
   4.16798     -8.633978
   4.21259     -8.661942
   4.25719     -8.685273
   4.30179     -8.702705
   4.34640     -8.713543
   4.39100     -8.717268
   4.39100     -8.717268
   4.43404     -8.703314
   4.47708     -8.662000
   4.52013     -8.594574
   4.56317     -8.503588
   4.60621     -8.393549
   4.64925     -8.271371
   4.69229     -8.148193
   4.73533     -8.044096
   4.77838     -7.992762
   4.82142     -7.985666
   4.86446     -7.990233
   4.90750     -7.997709
   4.95054     -8.006587
   4.99358     -8.017052
   5.03662     -8.030268
   5.07967     -8.047118
   5.12271     -8.065600
   5.16575     -8.083219
   5.20879     -8.098195
   5.25183     -8.109434
   5.29487     -8.116389
   5.33792     -8.118765
 
# Band-Index:   22
   5.33792     -8.018029
   5.29487     -8.017705
   5.25183     -8.016684
   5.20879     -8.014715
   5.16575     -8.011503
   5.12271     -8.006384
   5.07967     -7.998421
   5.03662     -7.985367
   4.99358     -7.966438
   4.95054     -7.952588
   4.90750     -7.940088
   4.86446     -7.927648
   4.82142     -7.915451
   4.77838     -7.905932
   4.73533     -7.927473
   4.69229     -7.931080
   4.64925     -7.928232
   4.60621     -7.924369
   4.56317     -7.920723
   4.52013     -7.917564
   4.47708     -7.914875
   4.43404     -7.912937
   4.39100     -7.912230
   4.39100     -7.912230
   4.34640     -7.911308
   4.30179     -7.908549
   4.25719     -7.904112
   4.21259     -7.898122
   4.16798     -7.890679
   4.12338     -7.882196
   4.07878     -7.872801
   4.03417     -7.863029
   3.98957     -7.856222
   3.94497     -7.855927
   3.90036     -7.855572
   3.85576     -7.855254
   3.85576     -7.855258
   3.81393     -7.855536
   3.77211     -7.857275
   3.73028     -7.862006
   3.68845     -7.870417
   3.64662     -7.880786
   3.60480     -7.891836
   3.56297     -7.902934
   3.52114     -7.913475
   3.47932     -7.923340
   3.43749     -7.931663
   3.39566     -7.935136
   3.35383     -7.923752
   3.31201     -7.915686
   3.27018     -7.921286
   3.22835     -7.931662
   3.18653     -7.943716
   3.14470     -7.957686
   3.10287     -7.974434
   3.06105     -7.989375
   3.01922     -8.000145
   2.97739     -8.007252
   2.93556     -8.011838
   2.89374     -8.014841
   2.85191     -8.016661
   2.81008     -8.017749
   2.76826     -8.018029
   2.76826     -8.018029
   2.72555     -8.017704
   2.68285     -8.016673
   2.64015     -8.014678
   2.59745     -8.011374
   2.55475     -8.006186
   2.51205     -7.998143
   2.46935     -7.985559
   2.42665     -7.968069
   2.38395     -7.952679
   2.34125     -7.940121
   2.29855     -7.927564
   2.25585     -7.915394
   2.21315     -7.928920
   2.17045     -7.948259
   2.12775     -7.944195
   2.08505     -7.937013
   2.04235     -7.929747
   1.99965     -7.922932
   1.95695     -7.916784
   1.91425     -7.911554
   1.87155     -7.907718
   1.82885     -7.906295
   1.82885     -7.906295
   1.78282     -7.905420
   1.73680     -7.902748
   1.69078     -7.898376
   1.64476     -7.892464
   1.59874     -7.885150
   1.55271     -7.876796
   1.50669     -7.867590
   1.46067     -7.858258
   1.41465     -7.855989
   1.36863     -7.855725
   1.32260     -7.855402
   1.27658     -7.855291
   1.27658     -7.855281
   1.23376     -7.856132
   1.19094     -7.859316
   1.14812     -7.866260
   1.10531     -7.875668
   1.06249     -7.885996
   1.01967     -7.896226
   0.97685     -7.906049
   0.93403     -7.915139
   0.89121     -7.922831
   0.84839     -7.925603
   0.80557     -7.899684
   0.76275     -7.898012
   0.71993     -7.910473
   0.67711     -7.923746
   0.63429     -7.937240
   0.59147     -7.950395
   0.54866     -7.963205
   0.50584     -7.975084
   0.46302     -7.985833
   0.42020     -7.995357
   0.37738     -8.003350
   0.33456     -8.009749
   0.29174     -8.014343
   0.24892     -8.017109
   0.20610     -8.018125
   0.20610     -8.018125
   0.15458     -8.018029
   0.10305     -8.018056
   0.05153     -8.018104
   0.00000     -8.018029
 
# Band-Index:   23
   0.00000     -8.018029
   0.05153     -8.018104
   0.10305     -8.018056
   0.15458     -8.003269
   0.20610     -7.944200
   0.20610     -7.944200
   0.24892     -7.940619
   0.29174     -7.930106
   0.33456     -7.913224
   0.37738     -7.890832
   0.42020     -7.865138
   0.46302     -7.849113
   0.50584     -7.838835
   0.54866     -7.827689
   0.59147     -7.815407
   0.63429     -7.802185
   0.67711     -7.788275
   0.71993     -7.781409
   0.76275     -7.835619
   0.80557     -7.886358
   0.84839     -7.876481
   0.89121     -7.868123
   0.93403     -7.861345
   0.97685     -7.856057
   1.01967     -7.852145
   1.06249     -7.849326
   1.10531     -7.847295
   1.14812     -7.845363
   1.19094     -7.842365
   1.23376     -7.838337
   1.27658     -7.835532
   1.27658     -7.835539
   1.32260     -7.836266
   1.36863     -7.841054
   1.41465     -7.848724
   1.46067     -7.855715
   1.50669     -7.855643
   1.55271     -7.855184
   1.59874     -7.854360
   1.64476     -7.853271
   1.69078     -7.852106
   1.73680     -7.851113
   1.78282     -7.850335
   1.82885     -7.850059
   1.82885     -7.850059
   1.87155     -7.850720
   1.91425     -7.852709
   1.95695     -7.855997
   1.99965     -7.860737
   2.04235     -7.866727
   2.08505     -7.874116
   2.12775     -7.882830
   2.17045     -7.892725
   2.21315     -7.903648
   2.25585     -7.904534
   2.29855     -7.908098
   2.34125     -7.925401
   2.38395     -7.946992
   2.42665     -7.964748
   2.46935     -7.976163
   2.51205     -7.986541
   2.55475     -7.995709
   2.59745     -8.003610
   2.64015     -8.009876
   2.68285     -8.014304
   2.72555     -8.017095
   2.76826     -8.018029
   2.76826     -8.018029
   2.81008     -8.017122
   2.85191     -8.014476
   2.89374     -8.010130
   2.93556     -8.003972
   2.97739     -7.996324
   3.01922     -7.987137
   3.06105     -7.976579
   3.10287     -7.964538
   3.14470     -7.949411
   3.18653     -7.928962
   3.22835     -7.907241
   3.27018     -7.888270
   3.31201     -7.877363
   3.35383     -7.875665
   3.39566     -7.872487
   3.43749     -7.866811
   3.47932     -7.861119
   3.52114     -7.856257
   3.56297     -7.852576
   3.60480     -7.849695
   3.64662     -7.847617
   3.68845     -7.845902
   3.73028     -7.843476
   3.77211     -7.839848
   3.81393     -7.836298
   3.85576     -7.835402
   3.85576     -7.835399
   3.90036     -7.838417
   3.94497     -7.844793
   3.98957     -7.853333
   4.03417     -7.856363
   4.07878     -7.856178
   4.12338     -7.855733
   4.16798     -7.854858
   4.21259     -7.853717
   4.25719     -7.852407
   4.30179     -7.851143
   4.34640     -7.850281
   4.39100     -7.849970
   4.39100     -7.849970
   4.43404     -7.850616
   4.47708     -7.852565
   4.52013     -7.855893
   4.56317     -7.860652
   4.60621     -7.866755
   4.64925     -7.874151
   4.69229     -7.882860
   4.73533     -7.892755
   4.77838     -7.903693
   4.82142     -7.891502
   4.86446     -7.900435
   4.90750     -7.920278
   4.95054     -7.943602
   4.99358     -7.964782
   5.03662     -7.976119
   5.07967     -7.986631
   5.12271     -7.995704
   5.16575     -8.003641
   5.20879     -8.009884
   5.25183     -8.014328
   5.29487     -8.017096
   5.33792     -8.018029
 
# Band-Index:   24
   5.33792     -7.656078
   5.29487     -7.656747
   5.25183     -7.658718
   5.20879     -7.661935
   5.16575     -7.665982
   5.12271     -7.670859
   5.07967     -7.676384
   5.03662     -7.682249
   4.99358     -7.688420
   4.95054     -7.694885
   4.90750     -7.702385
   4.86446     -7.712668
   4.82142     -7.729507
   4.77838     -7.749830
   4.73533     -7.758436
   4.69229     -7.758402
   4.64925     -7.757136
   4.60621     -7.756935
   4.56317     -7.757864
   4.52013     -7.760083
   4.47708     -7.763677
   4.43404     -7.767665
   4.39100     -7.769509
   4.39100     -7.769509
   4.34640     -7.768450
   4.30179     -7.765592
   4.25719     -7.761569
   4.21259     -7.757072
   4.16798     -7.752840
   4.12338     -7.749534
   4.07878     -7.747577
   4.03417     -7.747371
   3.98957     -7.748772
   3.94497     -7.751215
   3.90036     -7.753695
   3.85576     -7.754851
   3.85576     -7.754854
   3.81393     -7.754204
   3.77211     -7.752033
   3.73028     -7.749122
   3.68845     -7.746507
   3.64662     -7.744431
   3.60480     -7.743278
   3.56297     -7.743233
   3.52114     -7.744055
   3.47932     -7.746357
   3.43749     -7.749960
   3.39566     -7.753496
   3.35383     -7.751495
   3.31201     -7.738782
   3.27018     -7.722946
   3.22835     -7.710881
   3.18653     -7.701763
   3.14470     -7.694298
   3.10287     -7.687559
   3.06105     -7.681314
   3.01922     -7.675588
   2.97739     -7.670292
   2.93556     -7.665552
   2.89374     -7.661641
   2.85191     -7.658646
   2.81008     -7.656764
   2.76826     -7.656078
   2.76826     -7.656078
   2.72555     -7.656746
   2.68285     -7.658776
   2.64015     -7.661904
   2.59745     -7.665962
   2.55475     -7.670930
   2.51205     -7.676500
   2.46935     -7.682680
   2.42665     -7.689281
   2.38395     -7.696380
   2.34125     -7.704252
   2.29855     -7.714074
   2.25585     -7.727452
   2.21315     -7.741043
   2.17045     -7.746535
   2.12775     -7.746874
   2.08505     -7.746920
   2.04235     -7.747573
   1.99965     -7.748531
   1.95695     -7.749571
   1.91425     -7.750426
   1.87155     -7.751011
   1.82885     -7.751175
   1.82885     -7.751175
   1.78282     -7.750667
   1.73680     -7.749143
   1.69078     -7.747074
   1.64476     -7.744866
   1.59874     -7.743013
   1.55271     -7.742018
   1.50669     -7.742351
   1.46067     -7.744250
   1.41465     -7.747468
   1.36863     -7.751267
   1.32260     -7.754168
   1.27658     -7.754812
   1.27658     -7.754804
   1.23376     -7.753227
   1.19094     -7.750243
   1.14812     -7.747150
   1.10531     -7.744419
   1.06249     -7.742458
   1.01967     -7.741419
   0.97685     -7.741217
   0.93403     -7.741951
   0.89121     -7.743701
   0.84839     -7.747208
   0.80557     -7.753271
   0.76275     -7.762580
   0.71993     -7.774653
   0.67711     -7.749157
   0.63429     -7.740192
   0.59147     -7.750399
   0.54866     -7.772808
   0.50584     -7.801373
   0.46302     -7.831617
   0.42020     -7.854007
   0.37738     -7.862291
   0.33456     -7.867998
   0.29174     -7.871900
   0.24892     -7.874245
   0.20610     -7.875020
   0.20610     -7.875020
   0.15458     -7.800499
   0.10305     -7.697626
   0.05153     -7.656089
   0.00000     -7.656078
 
# Band-Index:   25
   0.00000     -7.656078
   0.05153     -7.656089
   0.10305     -7.655929
   0.15458     -7.655853
   0.20610     -7.655818
   0.20610     -7.655818
   0.24892     -7.656256
   0.29174     -7.657608
   0.33456     -7.659770
   0.37738     -7.662438
   0.42020     -7.665843
   0.46302     -7.669586
   0.50584     -7.673720
   0.54866     -7.678020
   0.59147     -7.682179
   0.63429     -7.685549
   0.67711     -7.686120
   0.71993     -7.684112
   0.76275     -7.680668
   0.80557     -7.676596
   0.84839     -7.672570
   0.89121     -7.669031
   0.93403     -7.666039
   0.97685     -7.663562
   1.01967     -7.661730
   1.06249     -7.660738
   1.10531     -7.660485
   1.14812     -7.660971
   1.19094     -7.661705
   1.23376     -7.662573
   1.27658     -7.663002
   1.27658     -7.663019
   1.32260     -7.662838
   1.36863     -7.661644
   1.41465     -7.659349
   1.46067     -7.655817
   1.50669     -7.651040
   1.55271     -7.645327
   1.59874     -7.639071
   1.64476     -7.632891
   1.69078     -7.627055
   1.73680     -7.622388
   1.78282     -7.619281
   1.82885     -7.618121
   1.82885     -7.618121
   1.87155     -7.618600
   1.91425     -7.620006
   1.95695     -7.622315
   1.99965     -7.625354
   2.04235     -7.628933
   2.08505     -7.632692
   2.12775     -7.636408
   2.17045     -7.639970
   2.21315     -7.643231
   2.25585     -7.646085
   2.29855     -7.648556
   2.34125     -7.650625
   2.38395     -7.652240
   2.42665     -7.653424
   2.46935     -7.654245
   2.51205     -7.654948
   2.55475     -7.655367
   2.59745     -7.655659
   2.64015     -7.655872
   2.68285     -7.655954
   2.72555     -7.656047
   2.76826     -7.656078
   2.76826     -7.656078
   2.81008     -7.656067
   2.85191     -7.655979
   2.89374     -7.655920
   2.93556     -7.655753
   2.97739     -7.655535
   3.01922     -7.655118
   3.06105     -7.654555
   3.10287     -7.653695
   3.14470     -7.652578
   3.18653     -7.650948
   3.22835     -7.648875
   3.27018     -7.646747
   3.31201     -7.647340
   3.35383     -7.654190
   3.39566     -7.660560
   3.43749     -7.663034
   3.47932     -7.663094
   3.52114     -7.662066
   3.56297     -7.660946
   3.60480     -7.660051
   3.64662     -7.659842
   3.68845     -7.660245
   3.73028     -7.661051
   3.77211     -7.662083
   3.81393     -7.662802
   3.85576     -7.663010
   3.85576     -7.663002
   3.90036     -7.662507
   3.94497     -7.660975
   3.98957     -7.658443
   4.03417     -7.654783
   4.07878     -7.649969
   4.12338     -7.644325
   4.16798     -7.638098
   4.21259     -7.631988
   4.25719     -7.626353
   4.30179     -7.621892
   4.34640     -7.618928
   4.39100     -7.617974
   4.39100     -7.617974
   4.43404     -7.618435
   4.47708     -7.619955
   4.52013     -7.622321
   4.56317     -7.625359
   4.60621     -7.628847
   4.64925     -7.632593
   4.69229     -7.636357
   4.73533     -7.640023
   4.77838     -7.643338
   4.82142     -7.646251
   4.86446     -7.648652
   4.90750     -7.650591
   4.95054     -7.652234
   4.99358     -7.653426
   5.03662     -7.654310
   5.07967     -7.654998
   5.12271     -7.655397
   5.16575     -7.655727
   5.20879     -7.655901
   5.25183     -7.656023
   5.29487     -7.656047
   5.33792     -7.656078
 
# Band-Index:   26
   5.33792     -7.579043
   5.29487     -7.578021
   5.25183     -7.575043
   5.20879     -7.570614
   5.16575     -7.564598
   5.12271     -7.557816
   5.07967     -7.551174
   5.03662     -7.545977
   4.99358     -7.544528
   4.95054     -7.549562
   4.90750     -7.564616
   4.86446     -7.590628
   4.82142     -7.619690
   4.77838     -7.634967
   4.73533     -7.630611
   4.69229     -7.611161
   4.64925     -7.581493
   4.60621     -7.546041
   4.56317     -7.509029
   4.52013     -7.480432
   4.47708     -7.523894
   4.43404     -7.564422
   4.39100     -7.578154
   4.39100     -7.578154
   4.34640     -7.575218
   4.30179     -7.566685
   4.25719     -7.552618
   4.21259     -7.533290
   4.16798     -7.509264
   4.12338     -7.481689
   4.07878     -7.452011
   4.03417     -7.422211
   3.98957     -7.394636
   3.94497     -7.371895
   3.90036     -7.356708
   3.85576     -7.350853
   3.85576     -7.350853
   3.81393     -7.352720
   3.77211     -7.356815
   3.73028     -7.356603
   3.68845     -7.348357
   3.64662     -7.358607
   3.60480     -7.396115
   3.56297     -7.439203
   3.52114     -7.482918
   3.47932     -7.524172
   3.43749     -7.559466
   3.39566     -7.586167
   3.35383     -7.601451
   3.31201     -7.599102
   3.27018     -7.576408
   3.22835     -7.549304
   3.18653     -7.529945
   3.14470     -7.521228
   3.10287     -7.521316
   3.06105     -7.527343
   3.01922     -7.536759
   2.97739     -7.547457
   2.93556     -7.557624
   2.89374     -7.566507
   2.85191     -7.573234
   2.81008     -7.577559
   2.76826     -7.579043
   2.76826     -7.579043
   2.72555     -7.577631
   2.68285     -7.573617
   2.64015     -7.567141
   2.59745     -7.558830
   2.55475     -7.549508
   2.51205     -7.540302
   2.46935     -7.532928
   2.42665     -7.529910
   2.38395     -7.534544
   2.34125     -7.550232
   2.29855     -7.578201
   2.25585     -7.611274
   2.21315     -7.632075
   2.17045     -7.631224
   2.12775     -7.612236
   2.08505     -7.581531
   2.04235     -7.544817
   1.99965     -7.506943
   1.95695     -7.477071
   1.91425     -7.535976
   1.87155     -7.582500
   1.82885     -7.598566
   1.82885     -7.598566
   1.78282     -7.594875
   1.73680     -7.584110
   1.69078     -7.566769
   1.64476     -7.543459
   1.59874     -7.515223
   1.55271     -7.483571
   1.50669     -7.450331
   1.46067     -7.417866
   1.41465     -7.388767
   1.36863     -7.366266
   1.32260     -7.353398
   1.27658     -7.351081
   1.27658     -7.351082
   1.23376     -7.354935
   1.19094     -7.357790
   1.14812     -7.352818
   1.10531     -7.342080
   1.06249     -7.378472
   1.01967     -7.420894
   0.97685     -7.465352
   0.93403     -7.508713
   0.89121     -7.548388
   0.84839     -7.582065
   0.80557     -7.608289
   0.76275     -7.626475
   0.71993     -7.637898
   0.67711     -7.644771
   0.63429     -7.649035
   0.59147     -7.651619
   0.54866     -7.653275
   0.50584     -7.654332
   0.46302     -7.654952
   0.42020     -7.655388
   0.37738     -7.655666
   0.33456     -7.655850
   0.29174     -7.655896
   0.24892     -7.655826
   0.20610     -7.655818
   0.20610     -7.655818
   0.15458     -7.655853
   0.10305     -7.655929
   0.05153     -7.613072
   0.00000     -7.579043
 
# Band-Index:   27
   0.00000     -6.355184
   0.05153     -6.308289
   0.10305     -6.191831
   0.15458     -6.064696
   0.20610     -6.005930
   0.20610     -6.005930
   0.24892     -6.007641
   0.29174     -6.013076
   0.33456     -6.023242
   0.37738     -6.039800
   0.42020     -6.065177
   0.46302     -6.102346
   0.50584     -6.154412
   0.54866     -6.223577
   0.59147     -6.310020
   0.63429     -6.410405
   0.67711     -6.518047
   0.71993     -6.625902
   0.76275     -6.729863
   0.80557     -6.829545
   0.84839     -6.926384
   0.89121     -7.019874
   0.93403     -7.107321
   0.97685     -7.185219
   1.01967     -7.250388
   1.06249     -7.300443
   1.10531     -7.333447
   1.14812     -7.311544
   1.19094     -7.291896
   1.23376     -7.281323
   1.27658     -7.277655
   1.27658     -7.277672
   1.32260     -7.279299
   1.36863     -7.285884
   1.41465     -7.297228
   1.46067     -7.312659
   1.50669     -7.330456
   1.55271     -7.349353
   1.59874     -7.367855
   1.64476     -7.384992
   1.69078     -7.399620
   1.73680     -7.410923
   1.78282     -7.418011
   1.82885     -7.420422
   1.82885     -7.420422
   1.87155     -7.426010
   1.91425     -7.442743
   1.95695     -7.455189
   1.99965     -7.364290
   2.04235     -7.252072
   2.08505     -7.129242
   2.12775     -7.002264
   2.17045     -6.876865
   2.21315     -6.756769
   2.25585     -6.644358
   2.29855     -6.542932
   2.34125     -6.458653
   2.38395     -6.396838
   2.42665     -6.357643
   2.46935     -6.337183
   2.51205     -6.330028
   2.55475     -6.331071
   2.59745     -6.336492
   2.64015     -6.343346
   2.68285     -6.349512
   2.72555     -6.353714
   2.76826     -6.355184
   2.76826     -6.355184
   2.81008     -6.353953
   2.85191     -6.350391
   2.89374     -6.345247
   2.93556     -6.339617
   2.97739     -6.335426
   3.01922     -6.335012
   3.06105     -6.341508
   3.10287     -6.359192
   3.14470     -6.391784
   3.18653     -6.442285
   3.22835     -6.510781
   3.27018     -6.593596
   3.31201     -6.685639
   3.35383     -6.782305
   3.39566     -6.880429
   3.43749     -6.976836
   3.47932     -7.068036
   3.52114     -7.150470
   3.56297     -7.221064
   3.60480     -7.276995
   3.64662     -7.315820
   3.68845     -7.318913
   3.73028     -7.298630
   3.77211     -7.285621
   3.81393     -7.279245
   3.85576     -7.277539
   3.85576     -7.277531
   3.90036     -7.279811
   3.94497     -7.286450
   3.98957     -7.297546
   4.03417     -7.312291
   4.07878     -7.329018
   4.12338     -7.346553
   4.16798     -7.363618
   4.21259     -7.379303
   4.25719     -7.392674
   4.30179     -7.402833
   4.34640     -7.409381
   4.39100     -7.411733
   4.39100     -7.411733
   4.43404     -7.418651
   4.47708     -7.437801
   4.52013     -7.443110
   4.56317     -7.359499
   4.60621     -7.252199
   4.64925     -7.133970
   4.69229     -7.012161
   4.73533     -6.892385
   4.77838     -6.777197
   4.82142     -6.666522
   4.86446     -6.562054
   4.90750     -6.470298
   4.95054     -6.399474
   4.99358     -6.352996
   5.03662     -6.328295
   5.07967     -6.319954
   5.12271     -6.321979
   5.16575     -6.329657
   5.20879     -6.339059
   5.25183     -6.347443
   5.29487     -6.353179
   5.33792     -6.355184
 
# Band-Index:   28
   5.33792     -4.264975
   5.29487     -4.274469
   5.25183     -4.303988
   5.20879     -4.358151
   5.16575     -4.450461
   5.12271     -4.605065
   5.07967     -4.811139
   5.03662     -5.034054
   4.99358     -5.255492
   4.95054     -5.464486
   4.90750     -5.656265
   4.86446     -5.832518
   4.82142     -5.999983
   4.77838     -6.165235
   4.73533     -6.328834
   4.69229     -6.486676
   4.64925     -6.633563
   4.60621     -6.764911
   4.56317     -6.876953
   4.52013     -6.966926
   4.47708     -7.032891
   4.43404     -7.073304
   4.39100     -7.087042
   4.39100     -7.087042
   4.34640     -7.085182
   4.30179     -7.080195
   4.25719     -7.072477
   4.21259     -7.062833
   4.16798     -7.052443
   4.12338     -7.042792
   4.07878     -7.035145
   4.03417     -7.030705
   3.98957     -7.029726
   3.94497     -7.031556
   3.90036     -7.034432
   3.85576     -7.036005
   3.85576     -7.036005
   3.81393     -7.033908
   3.77211     -7.025191
   3.73028     -7.005253
   3.68845     -6.969561
   3.64662     -6.914982
   3.60480     -6.840657
   3.56297     -6.747248
   3.52114     -6.635682
   3.47932     -6.507684
   3.43749     -6.364566
   3.39566     -6.208072
   3.35383     -6.039771
   3.31201     -5.861755
   3.27018     -5.771655
   3.22835     -5.671048
   3.18653     -5.538574
   3.14470     -5.376256
   3.10287     -5.189232
   3.06105     -4.986249
   3.01922     -4.778530
   2.97739     -4.583134
   2.93556     -4.431034
   2.89374     -4.342302
   2.85191     -4.295486
   2.81008     -4.272124
   2.76826     -4.264975
   2.76826     -4.264975
   2.72555     -4.272937
   2.68285     -4.299084
   2.64015     -4.352336
   2.59745     -4.455937
   2.55475     -4.628125
   2.51205     -4.843024
   2.46935     -5.072265
   2.42665     -5.300435
   2.38395     -5.516688
   2.34125     -5.714214
   2.29855     -5.891967
   2.25585     -6.055430
   2.21315     -6.212009
   2.17045     -6.365615
   2.12775     -6.514517
   2.08505     -6.653988
   2.04235     -6.778819
   1.99965     -6.884538
   1.95695     -6.967634
   1.91425     -7.026288
   1.87155     -7.060361
   1.82885     -7.071407
   1.82885     -7.071407
   1.78282     -7.069782
   1.73680     -7.065018
   1.69078     -7.057664
   1.64476     -7.048697
   1.59874     -7.039261
   1.55271     -7.031015
   1.50669     -7.025377
   1.46067     -7.023510
   1.41465     -7.025400
   1.36863     -7.029848
   1.32260     -7.034408
   1.27658     -7.035965
   1.27658     -7.035964
   1.23376     -7.031494
   1.19094     -7.017094
   1.14812     -6.988037
   1.10531     -6.940438
   1.06249     -6.872969
   1.01967     -6.785587
   0.97685     -6.679411
   0.93403     -6.556179
   0.89121     -6.418208
   0.84839     -6.268750
   0.80557     -6.113481
   0.76275     -5.962794
   0.71993     -5.825186
   0.67711     -5.687954
   0.63429     -5.536746
   0.59147     -5.368357
   0.54866     -5.189515
   0.50584     -5.028006
   0.46302     -4.934677
   0.42020     -4.897159
   0.37738     -4.884277
   0.33456     -4.882014
   0.29174     -4.883469
   0.24892     -4.885380
   0.20610     -4.886308
   0.20610     -4.886308
   0.15458     -4.804948
   0.10305     -4.609529
   0.05153     -4.385816
   0.00000     -4.264975
 
# Band-Index:   29
   0.00000     -3.820611
   0.05153     -3.820620
   0.10305     -3.820342
   0.15458     -3.820141
   0.20610     -3.820122
   0.20610     -3.820122
   0.24892     -3.853756
   0.29174     -3.950013
   0.33456     -4.097385
   0.37738     -4.280304
   0.42020     -4.482769
   0.46302     -4.686873
   0.50584     -4.863707
   0.54866     -5.004147
   0.59147     -5.152765
   0.63429     -5.319976
   0.67711     -5.493685
   0.71993     -5.657652
   0.76275     -5.787106
   0.80557     -5.862540
   0.84839     -5.890451
   0.89121     -5.884821
   0.93403     -5.863701
   0.97685     -5.909060
   1.01967     -6.050860
   1.06249     -6.196280
   1.10531     -6.330104
   1.14812     -6.446648
   1.19094     -6.540290
   1.23376     -6.605121
   1.27658     -6.634925
   1.27658     -6.634924
   1.32260     -6.622982
   1.36863     -6.565162
   1.41465     -6.467014
   1.46067     -6.337864
   1.50669     -6.190512
   1.55271     -6.045047
   1.59874     -5.933087
   1.64476     -5.879742
   1.69078     -5.867760
   1.73680     -5.870375
   1.78282     -5.874967
   1.82885     -5.876889
   1.82885     -5.876889
   1.87155     -5.876448
   1.91425     -5.877070
   1.95695     -5.881589
   1.99965     -5.889971
   2.04235     -5.897370
   2.08505     -5.895502
   2.12775     -5.874085
   2.17045     -5.822890
   2.21315     -5.734189
   2.25585     -5.606681
   2.29855     -5.445581
   2.34125     -5.261310
   2.38395     -5.065203
   2.42665     -4.868499
   2.46935     -4.683171
   2.51205     -4.520616
   2.55475     -4.383242
   2.59745     -4.252335
   2.64015     -4.105084
   2.68285     -3.963784
   2.72555     -3.860225
   2.76826     -3.820611
   2.76826     -3.820611
   2.81008     -3.859001
   2.85191     -3.959766
   2.89374     -4.099614
   2.93556     -4.251990
   2.97739     -4.391627
   3.01922     -4.533424
   3.06105     -4.697096
   3.10287     -4.881179
   3.14470     -5.077497
   3.18653     -5.278138
   3.22835     -5.478021
   3.27018     -5.672873
   3.31201     -5.840223
   3.35383     -5.881900
   3.39566     -5.897540
   3.43749     -5.892657
   3.47932     -5.875334
   3.52114     -5.878597
   3.56297     -5.989832
   3.60480     -6.132131
   3.64662     -6.268177
   3.68845     -6.390488
   3.73028     -6.493822
   3.77211     -6.573013
   3.81393     -6.622127
   3.85576     -6.635937
   3.85576     -6.635937
   3.90036     -6.608635
   3.94497     -6.539361
   3.98957     -6.434086
   4.03417     -6.301694
   4.07878     -6.153519
   4.12338     -6.005220
   4.16798     -5.878317
   4.21259     -5.793612
   4.25719     -5.751442
   4.30179     -5.734833
   4.34640     -5.729531
   4.39100     -5.728483
   4.39100     -5.728483
   4.43404     -5.742160
   4.47708     -5.777459
   4.52013     -5.823145
   4.56317     -5.869100
   4.60621     -5.906575
   4.64925     -5.926848
   4.69229     -5.920696
   4.73533     -5.879252
   4.77838     -5.796514
   4.82142     -5.672028
   4.86446     -5.512106
   4.90750     -5.327791
   4.95054     -5.131590
   4.99358     -4.935244
   5.03662     -4.749505
   5.07967     -4.583181
   5.12271     -4.434082
   5.16575     -4.279059
   5.20879     -4.112447
   5.25183     -3.964875
   5.29487     -3.860278
   5.33792     -3.820611
 
# Band-Index:   30
   5.33792     -3.820611
   5.29487     -3.828337
   5.25183     -3.851263
   5.20879     -3.888551
   5.16575     -3.938853
   5.12271     -4.000233
   5.07967     -4.071145
   5.03662     -4.148944
   4.99358     -4.231928
   4.95054     -4.318053
   4.90750     -4.405167
   4.86446     -4.502473
   4.82142     -4.618871
   4.77838     -4.746804
   4.73533     -4.878587
   4.69229     -5.008869
   4.64925     -5.133639
   4.60621     -5.249942
   4.56317     -5.354085
   4.52013     -5.442224
   4.47708     -5.509926
   4.43404     -5.552640
   4.39100     -5.567300
   4.39100     -5.567300
   4.34640     -5.565053
   4.30179     -5.558645
   4.25719     -5.548556
   4.21259     -5.536640
   4.16798     -5.529183
   4.12338     -5.534817
   4.07878     -5.549411
   4.03417     -5.566247
   3.98957     -5.583008
   3.94497     -5.598992
   3.90036     -5.622012
   3.85576     -5.640278
   3.85576     -5.640278
   3.81393     -5.632403
   3.77211     -5.603924
   3.73028     -5.578006
   3.68845     -5.604423
   3.64662     -5.657782
   3.60480     -5.711869
   3.56297     -5.756860
   3.52114     -5.755058
   3.47932     -5.630351
   3.43749     -5.468652
   3.39566     -5.301326
   3.35383     -5.134032
   3.31201     -4.969962
   3.27018     -4.811552
   3.22835     -4.660791
   3.18653     -4.518739
   3.14470     -4.386708
   3.10287     -4.267014
   3.06105     -4.166264
   3.01922     -4.081144
   2.97739     -4.005535
   2.93556     -3.940232
   2.89374     -3.888102
   2.85191     -3.850517
   2.81008     -3.828121
   2.76826     -3.820611
   2.76826     -3.820611
   2.72555     -3.828333
   2.68285     -3.851151
   2.64015     -3.888449
   2.59745     -3.938760
   2.55475     -4.000032
   2.51205     -4.070813
   2.46935     -4.171400
   2.42665     -4.292539
   2.38395     -4.412510
   2.34125     -4.531102
   2.29855     -4.644959
   2.25585     -4.751044
   2.21315     -4.850578
   2.17045     -4.948465
   2.12775     -5.049085
   2.08505     -5.152950
   2.04235     -5.256440
   1.99965     -5.353911
   1.95695     -5.438381
   1.91425     -5.503195
   1.87155     -5.543185
   1.82885     -5.556646
   1.82885     -5.556646
   1.78282     -5.555489
   1.73680     -5.553400
   1.69078     -5.554706
   1.64476     -5.568980
   1.59874     -5.597631
   1.55271     -5.610115
   1.50669     -5.599360
   1.46067     -5.582068
   1.41465     -5.573972
   1.36863     -5.587056
   1.32260     -5.631495
   1.27658     -5.639392
   1.27658     -5.639392
   1.23376     -5.615309
   1.19094     -5.601359
   1.14812     -5.609349
   1.10531     -5.633576
   1.06249     -5.675123
   1.01967     -5.724733
   0.97685     -5.761816
   0.93403     -5.688173
   0.89121     -5.527658
   0.84839     -5.355110
   0.80557     -5.180638
   0.76275     -5.007864
   0.71993     -4.839626
   0.67711     -4.679219
   0.63429     -4.531331
   0.59147     -4.422342
   0.54866     -4.345824
   0.50584     -4.247198
   0.46302     -4.133452
   0.42020     -4.030973
   0.37738     -3.951388
   0.33456     -3.892665
   0.29174     -3.851998
   0.24892     -3.828005
   0.20610     -3.820122
   0.20610     -3.820122
   0.15458     -3.820141
   0.10305     -3.820342
   0.05153     -3.820620
   0.00000     -3.820611
 
# Band-Index:   31
   0.00000     -3.604106
   0.05153     -3.480029
   0.10305     -3.290470
   0.15458     -3.290584
   0.20610     -3.290816
   0.20610     -3.290816
   0.24892     -3.318932
   0.29174     -3.399864
   0.33456     -3.522552
   0.37738     -3.671693
   0.42020     -3.830504
   0.46302     -3.980159
   0.50584     -4.113706
   0.54866     -4.240757
   0.59147     -4.365991
   0.63429     -4.447978
   0.67711     -4.496486
   0.71993     -4.549867
   0.76275     -4.616157
   0.80557     -4.692953
   0.84839     -4.772345
   0.89121     -4.847930
   0.93403     -4.962617
   0.97685     -5.086005
   1.01967     -5.198564
   1.06249     -5.301830
   1.10531     -5.399495
   1.14812     -5.488506
   1.19094     -5.561706
   1.23376     -5.597542
   1.27658     -5.594598
   1.27658     -5.594598
   1.32260     -5.586958
   1.36863     -5.576202
   1.41465     -5.503849
   1.46067     -5.457441
   1.50669     -5.453507
   1.55271     -5.443307
   1.59874     -5.420639
   1.64476     -5.361825
   1.69078     -5.261882
   1.73680     -5.159224
   1.78282     -5.085289
   1.82885     -5.056317
   1.82885     -5.056317
   1.87155     -5.047397
   1.91425     -5.022150
   1.95695     -4.996404
   1.99965     -4.960844
   2.04235     -4.915894
   2.08505     -4.862150
   2.12775     -4.800235
   2.17045     -4.731095
   2.21315     -4.655796
   2.25585     -4.575379
   2.29855     -4.491056
   2.34125     -4.404715
   2.38395     -4.317698
   2.42665     -4.231679
   2.46935     -4.148645
   2.51205     -4.045520
   2.55475     -3.914038
   2.59745     -3.787315
   2.64015     -3.684600
   2.68285     -3.624143
   2.72555     -3.604904
   2.76826     -3.604106
   2.76826     -3.604106
   2.81008     -3.605272
   2.85191     -3.623743
   2.89374     -3.679179
   2.93556     -3.771192
   2.97739     -3.883091
   3.01922     -3.998993
   3.06105     -4.111103
   3.10287     -4.213312
   3.14470     -4.303359
   3.18653     -4.385684
   3.22835     -4.458633
   3.27018     -4.518124
   3.31201     -4.564091
   3.35383     -4.610949
   3.39566     -4.719242
   3.43749     -4.852610
   3.47932     -4.982706
   3.52114     -5.106095
   3.56297     -5.220229
   3.60480     -5.321830
   3.64662     -5.408628
   3.68845     -5.478338
   3.73028     -5.527262
   3.77211     -5.561132
   3.81393     -5.583921
   3.85576     -5.594033
   3.85576     -5.594034
   3.90036     -5.589646
   3.94497     -5.547727
   3.98957     -5.464379
   4.03417     -5.381798
   4.07878     -5.390891
   4.12338     -5.408164
   4.16798     -5.395512
   4.21259     -5.341487
   4.25719     -5.312939
   4.30179     -5.321882
   4.34640     -5.330221
   4.39100     -5.333213
   4.39100     -5.333213
   4.43404     -5.311520
   4.47708     -5.251666
   4.52013     -5.163001
   4.56317     -5.052404
   4.60621     -4.926325
   4.64925     -4.863057
   4.69229     -4.801114
   4.73533     -4.731986
   4.77838     -4.656573
   4.82142     -4.576066
   4.86446     -4.491738
   4.90750     -4.400304
   4.95054     -4.306380
   4.99358     -4.212630
   5.03662     -4.112715
   5.07967     -4.002662
   5.12271     -3.883445
   5.16575     -3.766757
   5.20879     -3.671981
   5.25183     -3.618010
   5.29487     -3.603289
   5.33792     -3.604106
 
# Band-Index:   32
   5.33792     -3.290385
   5.29487     -3.302862
   5.25183     -3.332482
   5.20879     -3.360710
   5.16575     -3.383238
   5.12271     -3.432363
   5.07967     -3.489924
   5.03662     -3.587255
   4.99358     -3.751300
   4.95054     -3.930557
   4.90750     -4.100210
   4.86446     -4.244475
   4.82142     -4.357939
   4.77838     -4.452311
   4.73533     -4.549365
   4.69229     -4.663549
   4.64925     -4.792927
   4.60621     -4.916917
   4.56317     -4.961941
   4.52013     -4.997482
   4.47708     -5.023185
   4.43404     -5.038772
   4.39100     -5.044053
   4.39100     -5.044053
   4.34640     -5.067343
   4.30179     -5.131891
   4.25719     -5.218952
   4.21259     -5.266198
   4.16798     -5.255731
   4.12338     -5.245322
   4.07878     -5.263865
   4.03417     -5.325271
   3.98957     -5.314779
   3.94497     -5.291493
   3.90036     -5.288584
   3.85576     -5.318157
   3.85576     -5.318157
   3.81393     -5.366261
   3.77211     -5.419084
   3.73028     -5.446041
   3.68845     -5.400047
   3.64662     -5.311594
   3.60480     -5.205665
   3.56297     -5.090264
   3.52114     -4.969643
   3.47932     -4.846759
   3.43749     -4.723813
   3.39566     -4.618971
   3.35383     -4.539003
   3.31201     -4.400645
   3.27018     -4.245938
   3.22835     -4.094553
   3.18653     -3.956378
   3.14470     -3.831886
   3.10287     -3.719018
   3.06105     -3.618289
   3.01922     -3.531206
   2.97739     -3.458807
   2.93556     -3.402595
   2.89374     -3.364155
   2.85191     -3.331768
   2.81008     -3.302519
   2.76826     -3.290385
   2.76826     -3.290385
   2.72555     -3.302839
   2.68285     -3.332296
   2.64015     -3.359816
   2.59745     -3.383415
   2.55475     -3.432648
   2.51205     -3.490290
   2.46935     -3.554326
   2.42665     -3.633835
   2.38395     -3.797046
   2.34125     -3.958899
   2.29855     -4.109772
   2.25585     -4.246972
   2.21315     -4.369722
   2.17045     -4.480550
   2.12775     -4.586467
   2.08505     -4.694332
   2.04235     -4.800796
   1.99965     -4.895105
   1.95695     -4.968873
   1.91425     -5.019189
   1.87155     -5.037777
   1.82885     -5.042954
   1.82885     -5.042954
   1.78282     -5.039256
   1.73680     -5.035569
   1.69078     -5.031864
   1.64476     -5.030096
   1.59874     -5.040444
   1.55271     -5.114584
   1.50669     -5.250773
   1.46067     -5.384232
   1.41465     -5.437900
   1.36863     -5.406671
   1.32260     -5.361262
   1.27658     -5.312778
   1.27658     -5.312777
   1.23376     -5.286540
   1.19094     -5.293719
   1.14812     -5.301433
   1.10531     -5.279229
   1.06249     -5.217218
   1.01967     -5.123011
   0.97685     -5.016460
   0.93403     -4.922569
   0.89121     -4.830030
   0.84839     -4.693692
   0.80557     -4.556256
   0.76275     -4.420390
   0.71993     -4.286473
   0.67711     -4.152688
   0.63429     -4.017006
   0.59147     -3.880578
   0.54866     -3.749966
   0.50584     -3.633190
   0.46302     -3.534982
   0.42020     -3.455793
   0.37738     -3.393928
   0.33456     -3.347717
   0.29174     -3.315537
   0.24892     -3.296732
   0.20610     -3.290816
   0.20610     -3.290816
   0.15458     -3.290584
   0.10305     -3.290470
   0.05153     -3.290499
   0.00000     -3.290385
 
# Band-Index:   33
   0.00000     -3.290385
   0.05153     -3.290499
   0.10305     -3.247781
   0.15458     -3.042388
   0.20610     -2.956518
   0.20610     -2.956518
   0.24892     -2.959686
   0.29174     -2.970761
   0.33456     -2.992163
   0.37738     -3.028318
   0.42020     -3.088651
   0.46302     -3.188986
   0.50584     -3.332188
   0.54866     -3.493228
   0.59147     -3.657443
   0.63429     -3.822580
   0.67711     -3.985555
   0.71993     -4.141037
   0.76275     -4.286587
   0.80557     -4.424144
   0.84839     -4.557323
   0.89121     -4.684907
   0.93403     -4.794095
   0.97685     -4.858545
   1.01967     -4.877790
   1.06249     -4.874599
   1.10531     -4.925628
   1.14812     -5.013511
   1.19094     -5.090522
   1.23376     -5.137462
   1.27658     -5.133226
   1.27658     -5.133225
   1.32260     -5.097444
   1.36863     -5.058032
   1.41465     -5.025652
   1.46067     -5.003960
   1.50669     -4.990724
   1.55271     -4.972488
   1.59874     -4.891620
   1.64476     -4.753567
   1.69078     -4.617042
   1.73680     -4.498674
   1.78282     -4.403597
   1.82885     -4.334597
   1.82885     -4.334597
   1.87155     -4.329803
   1.91425     -4.326610
   1.95695     -4.322577
   1.99965     -4.313257
   2.04235     -4.291084
   2.08505     -4.243718
   2.12775     -4.157494
   2.17045     -4.054778
   2.21315     -3.988299
   2.25585     -3.917879
   2.29855     -3.844588
   2.34125     -3.770268
   2.38395     -3.696129
   2.42665     -3.623448
   2.46935     -3.497480
   2.51205     -3.421574
   2.55475     -3.391302
   2.59745     -3.376595
   2.64015     -3.343678
   2.68285     -3.314214
   2.72555     -3.296383
   2.76826     -3.290385
   2.76826     -3.290385
   2.81008     -3.296186
   2.85191     -3.313324
   2.89374     -3.339561
   2.93556     -3.363622
   2.97739     -3.380434
   3.01922     -3.403296
   3.06105     -3.450388
   3.10287     -3.541155
   3.14470     -3.677554
   3.18653     -3.837842
   3.22835     -3.999998
   3.27018     -4.151183
   3.31201     -4.293063
   3.35383     -4.427907
   3.39566     -4.540296
   3.43749     -4.592468
   3.47932     -4.634702
   3.52114     -4.691694
   3.56297     -4.753796
   3.60480     -4.814571
   3.64662     -4.875031
   3.68845     -4.935624
   3.73028     -4.994241
   3.77211     -5.048206
   3.81393     -5.094458
   3.85576     -5.130056
   3.85576     -5.130057
   3.90036     -5.150489
   3.94497     -5.149029
   3.98957     -5.138504
   4.03417     -5.124619
   4.07878     -5.077691
   4.12338     -4.962252
   4.16798     -4.814553
   4.21259     -4.665670
   4.25719     -4.531158
   4.30179     -4.423415
   4.34640     -4.353322
   4.39100     -4.329057
   4.39100     -4.329057
   4.43404     -4.324246
   4.47708     -4.310327
   4.52013     -4.287236
   4.56317     -4.255394
   4.60621     -4.215268
   4.64925     -4.167376
   4.69229     -4.112515
   4.73533     -4.051570
   4.77838     -3.985397
   4.82142     -3.915493
   4.86446     -3.842641
   4.90750     -3.768504
   4.95054     -3.694622
   4.99358     -3.622442
   5.03662     -3.553657
   5.07967     -3.470476
   5.12271     -3.409532
   5.16575     -3.381429
   5.20879     -3.343547
   5.25183     -3.314269
   5.29487     -3.296371
   5.33792     -3.290385
 
# Band-Index:   34
   5.33792     -2.097943
   5.29487     -2.140290
   5.25183     -2.254980
   5.20879     -2.418018
   5.16575     -2.607390
   5.12271     -2.801489
   5.07967     -2.974328
   5.03662     -3.101898
   4.99358     -3.194486
   4.95054     -3.285806
   4.90750     -3.398924
   4.86446     -3.535550
   4.82142     -3.681794
   4.77838     -3.817749
   4.73533     -3.923657
   4.69229     -3.988988
   4.64925     -4.019413
   4.60621     -4.030616
   4.56317     -4.037282
   4.52013     -4.048126
   4.47708     -4.062956
   4.43404     -4.075984
   4.39100     -4.081164
   4.39100     -4.081164
   4.34640     -4.082644
   4.30179     -4.089880
   4.25719     -4.116299
   4.21259     -4.193218
   4.16798     -4.307427
   4.12338     -4.420807
   4.07878     -4.515464
   4.03417     -4.583287
   3.98957     -4.621321
   3.94497     -4.631960
   3.90036     -4.621377
   3.85576     -4.596819
   3.85576     -4.596819
   3.81393     -4.568210
   3.77211     -4.540286
   3.73028     -4.518082
   3.68845     -4.504192
   3.64662     -4.496466
   3.60480     -4.491055
   3.56297     -4.483753
   3.52114     -4.469072
   3.47932     -4.434354
   3.43749     -4.361780
   3.39566     -4.252632
   3.35383     -4.121060
   3.31201     -3.977588
   3.27018     -3.828203
   3.22835     -3.676393
   3.18653     -3.523663
   3.14470     -3.372277
   3.10287     -3.224727
   3.06105     -3.074129
   3.01922     -2.908651
   2.97739     -2.732185
   2.93556     -2.554665
   2.89374     -2.387521
   2.85191     -2.242979
   2.81008     -2.138200
   2.76826     -2.097943
   2.76826     -2.097943
   2.72555     -2.140309
   2.68285     -2.255036
   2.64015     -2.418428
   2.59745     -2.610173
   2.55475     -2.812137
   2.51205     -3.001574
   2.46935     -3.144368
   2.42665     -3.225736
   2.38395     -3.286671
   2.34125     -3.375787
   2.29855     -3.515489
   2.25585     -3.687789
   2.21315     -3.865537
   2.17045     -4.027987
   2.12775     -4.116155
   2.08505     -4.171414
   2.04235     -4.219708
   1.99965     -4.260178
   1.95695     -4.292300
   1.91425     -4.315610
   1.87155     -4.328545
   1.82885     -4.329137
   1.82885     -4.329137
   1.78282     -4.279500
   1.73680     -4.240895
   1.69078     -4.213077
   1.64476     -4.207561
   1.59874     -4.274395
   1.55271     -4.378244
   1.50669     -4.465764
   1.46067     -4.523922
   1.41465     -4.553254
   1.36863     -4.564413
   1.32260     -4.574989
   1.27658     -4.601905
   1.27658     -4.601905
   1.23376     -4.646703
   1.19094     -4.703846
   1.14812     -4.762518
   1.10531     -4.809372
   1.06249     -4.795212
   1.01967     -4.698129
   0.97685     -4.588135
   0.93403     -4.474027
   0.89121     -4.357003
   0.84839     -4.237053
   0.80557     -4.113684
   0.76275     -3.986793
   0.71993     -3.856504
   0.67711     -3.721514
   0.63429     -3.578511
   0.59147     -3.424548
   0.54866     -3.265636
   0.50584     -3.119796
   0.46302     -2.984384
   0.42020     -2.827782
   0.37738     -2.649056
   0.33456     -2.467034
   0.29174     -2.296837
   0.24892     -2.158135
   0.20610     -2.096450
   0.20610     -2.096450
   0.15458     -2.096563
   0.10305     -2.097116
   0.05153     -2.097781
   0.00000     -2.097943
 
# Band-Index:   35
   0.00000     -2.097943
   0.05153     -2.097781
   0.10305     -2.097116
   0.15458     -2.096563
   0.20610     -2.096450
   0.20610     -2.096450
   0.24892     -2.115142
   0.29174     -2.174133
   0.33456     -2.276714
   0.37738     -2.418539
   0.42020     -2.588164
   0.46302     -2.770016
   0.50584     -2.944630
   0.54866     -3.092458
   0.59147     -3.218627
   0.63429     -3.338876
   0.67711     -3.455351
   0.71993     -3.560287
   0.76275     -3.644474
   0.80557     -3.703677
   0.84839     -3.740824
   0.89121     -3.763300
   0.93403     -3.778763
   0.97685     -3.793446
   1.01967     -3.812143
   1.06249     -3.837175
   1.10531     -3.869065
   1.14812     -3.905849
   1.19094     -3.943577
   1.23376     -3.975063
   1.27658     -3.990157
   1.27658     -3.990156
   1.32260     -3.984277
   1.36863     -3.974532
   1.41465     -3.986249
   1.46067     -4.014833
   1.50669     -4.047754
   1.55271     -4.078210
   1.59874     -4.096572
   1.64476     -4.059588
   1.69078     -3.945221
   1.73680     -3.819465
   1.78282     -3.710148
   1.82885     -3.648540
   1.82885     -3.648540
   1.87155     -3.640629
   1.91425     -3.617224
   1.95695     -3.578876
   1.99965     -3.527498
   2.04235     -3.465965
   2.08505     -3.398062
   2.12775     -3.327955
   2.17045     -3.259931
   2.21315     -3.197135
   2.25585     -3.139471
   2.29855     -3.077941
   2.34125     -2.990319
   2.38395     -2.857183
   2.42665     -2.697320
   2.46935     -2.596373
   2.51205     -2.497131
   2.55475     -2.401263
   2.59745     -2.311418
   2.64015     -2.230511
   2.68285     -2.162736
   2.72555     -2.115468
   2.76826     -2.097943
   2.76826     -2.097943
   2.81008     -2.115709
   2.85191     -2.171324
   2.89374     -2.268157
   2.93556     -2.402261
   2.97739     -2.562969
   3.01922     -2.736383
   3.06105     -2.905575
   3.10287     -3.049529
   3.14470     -3.152990
   3.18653     -3.231662
   3.22835     -3.309809
   3.27018     -3.397891
   3.31201     -3.495990
   3.35383     -3.599639
   3.39566     -3.703667
   3.43749     -3.803042
   3.47932     -3.892969
   3.52114     -3.968671
   3.56297     -4.026623
   3.60480     -4.064138
   3.64662     -4.081331
   3.68845     -4.078790
   3.73028     -4.058145
   3.77211     -4.025828
   3.81393     -3.996666
   3.85576     -3.991977
   3.85576     -3.991978
   3.90036     -4.011279
   3.94497     -4.033205
   3.98957     -4.047629
   4.03417     -4.053430
   4.07878     -4.052599
   4.12338     -4.047379
   4.16798     -4.037421
   4.21259     -4.015230
   4.25719     -3.953170
   4.30179     -3.848500
   4.34640     -3.742432
   4.39100     -3.679211
   4.39100     -3.679211
   4.43404     -3.678358
   4.47708     -3.674052
   4.52013     -3.660367
   4.56317     -3.630392
   4.60621     -3.580904
   4.64925     -3.513575
   4.69229     -3.432556
   4.73533     -3.341619
   4.77838     -3.243730
   4.82142     -3.141147
   4.86446     -3.034035
   4.90750     -2.918515
   4.95054     -2.800593
   4.99358     -2.699273
   5.03662     -2.597809
   5.07967     -2.498251
   5.12271     -2.402001
   5.16575     -2.311971
   5.20879     -2.230843
   5.25183     -2.162966
   5.29487     -2.115507
   5.33792     -2.097943
 
# Band-Index:   36
   5.33792     -1.772888
   5.29487     -1.786140
   5.25183     -1.831068
   5.20879     -1.912023
   5.16575     -2.025339
   5.12271     -2.163418
   5.07967     -2.318147
   5.03662     -2.479991
   4.99358     -2.639968
   4.95054     -2.787989
   4.90750     -2.900327
   4.86446     -2.997111
   4.82142     -3.089798
   4.77838     -3.176801
   4.73533     -3.257412
   4.69229     -3.330622
   4.64925     -3.395685
   4.60621     -3.452060
   4.56317     -3.498866
   4.52013     -3.535730
   4.47708     -3.562168
   4.43404     -3.578229
   4.39100     -3.583622
   4.39100     -3.583622
   4.34640     -3.537705
   4.30179     -3.478657
   4.25719     -3.432100
   4.21259     -3.400046
   4.16798     -3.384244
   4.12338     -3.388850
   4.07878     -3.419270
   4.03417     -3.478084
   3.98957     -3.557435
   3.94497     -3.641875
   3.90036     -3.717590
   3.85576     -3.769692
   3.85576     -3.769692
   3.81393     -3.776424
   3.77211     -3.737906
   3.73028     -3.671870
   3.68845     -3.589784
   3.64662     -3.496192
   3.60480     -3.393881
   3.56297     -3.285019
   3.52114     -3.171623
   3.47932     -3.056299
   3.43749     -2.941043
   3.39566     -2.827721
   3.35383     -2.717832
   3.31201     -2.611563
   3.27018     -2.506962
   3.22835     -2.398960
   3.18653     -2.284150
   3.14470     -2.172703
   3.10287     -2.089511
   3.06105     -2.028861
   3.01922     -1.977756
   2.97739     -1.932756
   2.93556     -1.891462
   2.89374     -1.851963
   2.85191     -1.814223
   2.81008     -1.784527
   2.76826     -1.772888
   2.76826     -1.772888
   2.72555     -1.786185
   2.68285     -1.831930
   2.64015     -1.915073
   2.59745     -2.032103
   2.55475     -2.175810
   2.51205     -2.338938
   2.46935     -2.513331
   2.42665     -2.690730
   2.38395     -2.798346
   2.34125     -2.897475
   2.29855     -2.993599
   2.25585     -3.085476
   2.21315     -3.172007
   2.17045     -3.251999
   2.12775     -3.324673
   2.08505     -3.389229
   2.04235     -3.444911
   1.99965     -3.491290
   1.95695     -3.527773
   1.91425     -3.554313
   1.87155     -3.570270
   1.82885     -3.575777
   1.82885     -3.575777
   1.78282     -3.539293
   1.73680     -3.501332
   1.69078     -3.479947
   1.64476     -3.475079
   1.59874     -3.487521
   1.55271     -3.519715
   1.50669     -3.573423
   1.46067     -3.644618
   1.41465     -3.719133
   1.36863     -3.772063
   1.32260     -3.784425
   1.27658     -3.767947
   1.27658     -3.767947
   1.23376     -3.736161
   1.19094     -3.685772
   1.14812     -3.614335
   1.10531     -3.523355
   1.06249     -3.417385
   1.01967     -3.300975
   0.97685     -3.177993
   0.93403     -3.051296
   0.89121     -2.923131
   0.84839     -2.795147
   0.80557     -2.668818
   0.76275     -2.545021
   0.71993     -2.425436
   0.67711     -2.314947
   0.63429     -2.223877
   0.59147     -2.151408
   0.54866     -2.088080
   0.50584     -2.031263
   0.46302     -1.980538
   0.42020     -1.935359
   0.37738     -1.894261
   0.33456     -1.855045
   0.29174     -1.817442
   0.24892     -1.786816
   0.20610     -1.773930
   0.20610     -1.773930
   0.15458     -1.773769
   0.10305     -1.773359
   0.05153     -1.773131
   0.00000     -1.772888
 
# Band-Index:   37
   0.00000     -1.772888
   0.05153     -1.773131
   0.10305     -1.773359
   0.15458     -1.773769
   0.20610     -1.773930
   0.20610     -1.773930
   0.24892     -1.769242
   0.29174     -1.771682
   0.33456     -1.785115
   0.37738     -1.809258
   0.42020     -1.844285
   0.46302     -1.890340
   0.50584     -1.946655
   0.54866     -2.012614
   0.59147     -2.087289
   0.63429     -2.167337
   0.67711     -2.240955
   0.71993     -2.306007
   0.76275     -2.384385
   0.80557     -2.477045
   0.84839     -2.573647
   0.89121     -2.671992
   0.93403     -2.771408
   0.97685     -2.871575
   1.01967     -2.972182
   1.06249     -3.072130
   1.10531     -3.169286
   1.14812     -3.260578
   1.19094     -3.341462
   1.23376     -3.405823
   1.27658     -3.444870
   1.27658     -3.444870
   1.32260     -3.447955
   1.36863     -3.406165
   1.41465     -3.325561
   1.46067     -3.216669
   1.50669     -3.088417
   1.55271     -2.949783
   1.59874     -2.813187
   1.64476     -2.695860
   1.69078     -2.614511
   1.73680     -2.572613
   1.78282     -2.557598
   1.82885     -2.554555
   1.82885     -2.554555
   1.87155     -2.554819
   1.91425     -2.556154
   1.95695     -2.558120
   1.99965     -2.560178
   2.04235     -2.560998
   2.08505     -2.558108
   2.12775     -2.547737
   2.17045     -2.524218
   2.21315     -2.480457
   2.25585     -2.409677
   2.29855     -2.307071
   2.34125     -2.171676
   2.38395     -2.006396
   2.42665     -1.816212
   2.46935     -1.668556
   2.51205     -1.671696
   2.55475     -1.681455
   2.59745     -1.697942
   2.64015     -1.719582
   2.68285     -1.743560
   2.72555     -1.764274
   2.76826     -1.772888
   2.76826     -1.772888
   2.81008     -1.765679
   2.85191     -1.755806
   2.89374     -1.757509
   2.93556     -1.774964
   2.97739     -1.808884
   3.01922     -1.859526
   3.06105     -1.928808
   3.10287     -2.017231
   3.14470     -2.108994
   3.18653     -2.182601
   3.22835     -2.246948
   3.27018     -2.306136
   3.31201     -2.366280
   3.35383     -2.437114
   3.39566     -2.522547
   3.43749     -2.619367
   3.47932     -2.724311
   3.52114     -2.834824
   3.56297     -2.948693
   3.60480     -3.062194
   3.64662     -3.171225
   3.68845     -3.270474
   3.73028     -3.353809
   3.77211     -3.414990
   3.81393     -3.447686
   3.85576     -3.447895
   3.85576     -3.447895
   3.90036     -3.412561
   3.94497     -3.346741
   3.98957     -3.260647
   4.03417     -3.161067
   4.07878     -3.049543
   4.12338     -2.931573
   4.16798     -2.822342
   4.21259     -2.740784
   4.25719     -2.695953
   4.30179     -2.680416
   4.34640     -2.679083
   4.39100     -2.680080
   4.39100     -2.680080
   4.43404     -2.679053
   4.47708     -2.675855
   4.52013     -2.669487
   4.56317     -2.658724
   4.60621     -2.642242
   4.64925     -2.618752
   4.69229     -2.586972
   4.73533     -2.544588
   4.77838     -2.488265
   4.82142     -2.412500
   4.86446     -2.310548
   4.90750     -2.177122
   4.95054     -2.012348
   4.99358     -1.821014
   5.03662     -1.667199
   5.07967     -1.670820
   5.12271     -1.680864
   5.16575     -1.697541
   5.20879     -1.719328
   5.25183     -1.743454
   5.29487     -1.764237
   5.33792     -1.772888
 
# Band-Index:   38
   5.33792     -1.238829
   5.29487     -1.229434
   5.25183     -1.204912
   5.20879     -1.173878
   5.16575     -1.145446
   5.12271     -1.184296
   5.07967     -1.392563
   5.03662     -1.610964
   4.99358     -1.670120
   4.95054     -1.679153
   4.90750     -1.693888
   4.86446     -1.713859
   4.82142     -1.738559
   4.77838     -1.767030
   4.73533     -1.798414
   4.69229     -1.831548
   4.64925     -1.864907
   4.60621     -1.896867
   4.56317     -1.925648
   4.52013     -1.949694
   4.47708     -1.967778
   4.43404     -1.979041
   4.39100     -1.982902
   4.39100     -1.982902
   4.34640     -2.000373
   4.30179     -2.047322
   4.25719     -2.109052
   4.21259     -2.164136
   4.16798     -2.196587
   4.12338     -2.215033
   4.07878     -2.347901
   4.03417     -2.461677
   3.98957     -2.542098
   3.94497     -2.590855
   3.90036     -2.614939
   3.85576     -2.621712
   3.85576     -2.621712
   3.81393     -2.617287
   3.77211     -2.604349
   3.73028     -2.582716
   3.68845     -2.551373
   3.64662     -2.508249
   3.60480     -2.452321
   3.56297     -2.384100
   3.52114     -2.310404
   3.47932     -2.257497
   3.43749     -2.240923
   3.39566     -2.234114
   3.35383     -2.216744
   3.31201     -2.176972
   3.27018     -2.112796
   3.22835     -2.031617
   3.18653     -1.937975
   3.14470     -1.828898
   3.10287     -1.694303
   3.06105     -1.528841
   3.01922     -1.341285
   2.97739     -1.158703
   2.93556     -1.134815
   2.89374     -1.167740
   2.85191     -1.202391
   2.81008     -1.228849
   2.76826     -1.238829
   2.76826     -1.238829
   2.72555     -1.228698
   2.68285     -1.201946
   2.64015     -1.167239
   2.59745     -1.136683
   2.55475     -1.189113
   2.51205     -1.393133
   2.46935     -1.608620
   2.42665     -1.672165
   2.38395     -1.682221
   2.34125     -1.698022
   2.29855     -1.719162
   2.25585     -1.745275
   2.21315     -1.775338
   2.17045     -1.808395
   2.12775     -1.843116
   2.08505     -1.877975
   2.04235     -1.911149
   1.99965     -1.940906
   1.95695     -1.965786
   1.91425     -1.984556
   1.87155     -1.996167
   1.82885     -2.000132
   1.82885     -2.000132
   1.78282     -2.016619
   1.73680     -2.058770
   1.69078     -2.107101
   1.64476     -2.142337
   1.59874     -2.163220
   1.55271     -2.237098
   1.50669     -2.365604
   1.46067     -2.472305
   1.41465     -2.547757
   1.36863     -2.593901
   1.32260     -2.616588
   1.27658     -2.621597
   1.27658     -2.621597
   1.23376     -2.614364
   1.19094     -2.596915
   1.14812     -2.569273
   1.10531     -2.529445
   1.06249     -2.475910
   1.01967     -2.410029
   0.97685     -2.352134
   0.93403     -2.343065
   0.89121     -2.350847
   0.84839     -2.352213
   0.80557     -2.340759
   0.76275     -2.311305
   0.71993     -2.250350
   0.67711     -2.153286
   0.63429     -2.031805
   0.59147     -1.884660
   0.54866     -1.713414
   0.50584     -1.522977
   0.46302     -1.320961
   0.42020     -1.241081
   0.37738     -1.327780
   0.33456     -1.428406
   0.29174     -1.535688
   0.24892     -1.632826
   0.20610     -1.676619
   0.20610     -1.676619
   0.15458     -1.605393
   0.10305     -1.448069
   0.05153     -1.299801
   0.00000     -1.238829
 
# Band-Index:   39
   0.00000     -0.461929
   0.05153     -0.461954
   0.10305     -0.461651
   0.15458     -0.461554
   0.20610     -0.461569
   0.20610     -0.461569
   0.24892     -0.495085
   0.29174     -0.590767
   0.33456     -0.735498
   0.37738     -0.913745
   0.42020     -1.110916
   0.46302     -1.163799
   0.50584     -1.107653
   0.54866     -1.070739
   0.59147     -1.096959
   0.63429     -1.211577
   0.67711     -1.346585
   0.71993     -1.489025
   0.76275     -1.634504
   0.80557     -1.779447
   0.84839     -1.920225
   0.89121     -2.052373
   0.93403     -2.168257
   0.97685     -2.244400
   1.01967     -2.249357
   1.06249     -2.226309
   1.10531     -2.199094
   1.14812     -2.173673
   1.19094     -2.152346
   1.23376     -2.136446
   1.27658     -2.125961
   1.27658     -2.125961
   1.32260     -2.120351
   1.36863     -2.119910
   1.41465     -2.123638
   1.46067     -2.130224
   1.50669     -2.137119
   1.55271     -2.135874
   1.59874     -2.055653
   1.64476     -1.904120
   1.69078     -1.756769
   1.73680     -1.631936
   1.78282     -1.543015
   1.82885     -1.508130
   1.82885     -1.508130
   1.87155     -1.505166
   1.91425     -1.496176
   1.95695     -1.480982
   1.99965     -1.459327
   2.04235     -1.430737
   2.08505     -1.394550
   2.12775     -1.350597
   2.17045     -1.298497
   2.21315     -1.238440
   2.25585     -1.171004
   2.29855     -1.097393
   2.34125     -1.061852
   2.38395     -1.051602
   2.42665     -1.048344
   2.46935     -1.052842
   2.51205     -1.064686
   2.55475     -1.073352
   2.59745     -0.948022
   2.64015     -0.764906
   2.68285     -0.609397
   2.72555     -0.501449
   2.76826     -0.461929
   2.76826     -0.461929
   2.81008     -0.500143
   2.85191     -0.604262
   2.89374     -0.754361
   2.93556     -0.931233
   2.97739     -1.071852
   3.01922     -1.064046
   3.06105     -1.050791
   3.10287     -1.051817
   3.14470     -1.096137
   3.18653     -1.200636
   3.22835     -1.329638
   3.27018     -1.467510
   3.31201     -1.609002
   3.35383     -1.749923
   3.39566     -1.885446
   3.43749     -2.008249
   3.47932     -2.102179
   3.52114     -2.142208
   3.56297     -2.145523
   3.60480     -2.138643
   3.64662     -2.130790
   3.68845     -2.124211
   3.73028     -2.119840
   3.77211     -2.118324
   3.81393     -2.119938
   3.85576     -2.125065
   3.85576     -2.125065
   3.90036     -2.134591
   3.94497     -2.147970
   3.98957     -2.164169
   4.03417     -2.181435
   4.07878     -2.196234
   4.12338     -2.195502
   4.16798     -2.049439
   4.21259     -1.892512
   4.25719     -1.747743
   4.30179     -1.629357
   4.34640     -1.550222
   4.39100     -1.521961
   4.39100     -1.521961
   4.43404     -1.518764
   4.47708     -1.509531
   4.52013     -1.494013
   4.56317     -1.471756
   4.60621     -1.442287
   4.64925     -1.405094
   4.69229     -1.359857
   4.73533     -1.306253
   4.77838     -1.244705
   4.82142     -1.175992
   4.86446     -1.101035
   4.90750     -1.077076
   4.95054     -1.072788
   4.99358     -1.072915
   5.03662     -1.078153
   5.07967     -1.088998
   5.12271     -1.096676
   5.16575     -0.952229
   5.20879     -0.765834
   5.25183     -0.609532
   5.29487     -0.501455
   5.33792     -0.461929
 
# Band-Index:   40
   5.33792     -0.461929
   5.29487     -0.469318
   5.25183     -0.491499
   5.20879     -0.527710
   5.16575     -0.576437
   5.12271     -0.635907
   5.07967     -0.704549
   5.03662     -0.779491
   4.99358     -0.859088
   4.95054     -0.940560
   4.90750     -1.021915
   4.86446     -1.085093
   4.82142     -1.095704
   4.77838     -1.108893
   4.73533     -1.124638
   4.69229     -1.143085
   4.64925     -1.164027
   4.60621     -1.186871
   4.56317     -1.210231
   4.52013     -1.232156
   4.47708     -1.250259
   4.43404     -1.262367
   4.39100     -1.266586
   4.39100     -1.266586
   4.34640     -1.262825
   4.30179     -1.254843
   4.25719     -1.247519
   4.21259     -1.243335
   4.16798     -1.242658
   4.12338     -1.245713
   4.07878     -1.251511
   4.03417     -1.259036
   3.98957     -1.266675
   3.94497     -1.272768
   3.90036     -1.275335
   3.85576     -1.272853
   3.85576     -1.272853
   3.81393     -1.265444
   3.77211     -1.253144
   3.73028     -1.236427
   3.68845     -1.216335
   3.64662     -1.193618
   3.60480     -1.169889
   3.56297     -1.146019
   3.52114     -1.122570
   3.47932     -1.100517
   3.43749     -1.079934
   3.39566     -1.061170
   3.35383     -1.044500
   3.31201     -1.030071
   3.27018     -1.017827
   3.22835     -1.007695
   3.18653     -0.997236
   3.14470     -0.974730
   3.10287     -0.907001
   3.06105     -0.813165
   3.01922     -0.723194
   2.97739     -0.644397
   2.93556     -0.578830
   2.89374     -0.527620
   2.85191     -0.490904
   2.81008     -0.469131
   2.76826     -0.461929
   2.76826     -0.461929
   2.72555     -0.469313
   2.68285     -0.491431
   2.64015     -0.527732
   2.59745     -0.576264
   2.55475     -0.635676
   2.51205     -0.704043
   2.46935     -0.778790
   2.42665     -0.857867
   2.38395     -0.938933
   2.34125     -1.019396
   2.29855     -1.078520
   2.25585     -1.100388
   2.21315     -1.126476
   2.17045     -1.155798
   2.12775     -1.187221
   2.08505     -1.219154
   2.04235     -1.249880
   1.99965     -1.278032
   1.95695     -1.301960
   1.91425     -1.320296
   1.87155     -1.331744
   1.82885     -1.335663
   1.82885     -1.335663
   1.78282     -1.322978
   1.73680     -1.298701
   1.69078     -1.275542
   1.64476     -1.256995
   1.59874     -1.244300
   1.55271     -1.237476
   1.50669     -1.236237
   1.46067     -1.240038
   1.41465     -1.247417
   1.36863     -1.256931
   1.32260     -1.266455
   1.27658     -1.273409
   1.27658     -1.273408
   1.23376     -1.275558
   1.19094     -1.271453
   1.14812     -1.260136
   1.10531     -1.240513
   1.06249     -1.213871
   1.01967     -1.181458
   0.97685     -1.145597
   0.93403     -1.108713
   0.89121     -1.073191
   0.84839     -1.041267
   0.80557     -1.015089
   0.76275     -0.996159
   0.71993     -0.985589
   0.67711     -0.983653
   0.63429     -0.990046
   0.59147     -0.994068
   0.54866     -0.931596
   0.50584     -0.830060
   0.46302     -0.734968
   0.42020     -0.652365
   0.37738     -0.583925
   0.33456     -0.530563
   0.29174     -0.492197
   0.24892     -0.469217
   0.20610     -0.461569
   0.20610     -0.461569
   0.15458     -0.461554
   0.10305     -0.461651
   0.05153     -0.461954
   0.00000     -0.461929
 
# Band-Index:   41
   0.00000      0.359070
   0.05153      0.411759
   0.10305      0.536628
   0.15458      0.663771
   0.20610      0.719023
   0.20610      0.719023
   0.24892      0.738042
   0.29174      0.790469
   0.33456      0.868131
   0.37738      0.962450
   0.42020      1.065799
   0.46302      1.172280
   0.50584      1.276923
   0.54866      1.376316
   0.59147      1.467966
   0.63429      1.550437
   0.67711      1.623584
   0.71993      1.687784
   0.76275      1.743991
   0.80557      1.793652
   0.84839      1.838303
   0.89121      1.879370
   0.93403      1.918691
   0.97685      1.957427
   1.01967      1.996394
   1.06249      2.035886
   1.10531      2.075876
   1.14812      2.114847
   1.19094      2.149901
   1.23376      2.173806
   1.27658      2.178297
   1.27658      2.178297
   1.32260      2.164122
   1.36863      2.135670
   1.41465      2.087940
   1.46067      2.013233
   1.50669      1.909411
   1.55271      1.779825
   1.59874      1.632219
   1.64476      1.478129
   1.69078      1.332583
   1.73680      1.212306
   1.78282      1.132684
   1.82885      1.104834
   1.82885      1.104834
   1.87155      1.109982
   1.91425      1.124826
   1.95695      1.149087
   1.99965      1.181665
   2.04235      1.221386
   2.08505      1.266516
   2.12775      1.314471
   2.17045      1.361123
   2.21315      1.401400
   2.25585      1.428536
   2.29855      1.435695
   2.34125      1.416433
   2.38395      1.366769
   2.42665      1.286271
   2.46935      1.177877
   2.51205      1.047258
   2.55475      0.902293
   2.59745      0.752372
   2.64015      0.608240
   2.68285      0.482759
   2.72555      0.392799
   2.76826      0.359070
   2.76826      0.359070
   2.81008      0.391463
   2.85191      0.478313
   2.89374      0.600331
   2.93556      0.742088
   2.97739      0.892400
   3.01922      1.042922
   3.06105      1.186678
   3.10287      1.318667
   3.14470      1.435133
   3.18653      1.534315
   3.22835      1.615666
   3.27018      1.680761
   3.31201      1.732115
   3.35383      1.773499
   3.39566      1.808542
   3.43749      1.840959
   3.47932      1.873508
   3.52114      1.908034
   3.56297      1.944985
   3.60480      1.984966
   3.64662      2.026263
   3.68845      2.067126
   3.73028      2.105182
   3.77211      2.137630
   3.81393      2.162879
   3.85576      2.177164
   3.85576      2.177164
   3.90036      2.170936
   3.94497      2.136366
   3.98957      2.076745
   4.03417      1.995302
   4.07878      1.894752
   4.12338      1.777942
   4.16798      1.650025
   4.21259      1.518185
   4.25719      1.393589
   4.30179      1.289875
   4.34640      1.220590
   4.39100      1.196114
   4.39100      1.196114
   4.43404      1.200708
   4.47708      1.214034
   4.52013      1.235139
   4.56317      1.263193
   4.60621      1.296682
   4.64925      1.333974
   4.69229      1.372527
   4.73533      1.409152
   4.77838      1.439243
   4.82142      1.457259
   4.86446      1.457038
   4.90750      1.433231
   4.95054      1.380969
   4.99358      1.299207
   5.03662      1.190206
   5.07967      1.058594
   5.12271      0.912055
   5.16575      0.759731
   5.20879      0.612957
   5.25183      0.485126
   5.29487      0.393408
   5.33792      0.359070
 
# Band-Index:   42
   5.33792      1.475120
   5.29487      1.502857
   5.25183      1.583193
   5.20879      1.708373
   5.16575      1.866370
   5.12271      2.040873
   5.07967      2.209621
   5.03662      2.342787
   4.99358      2.407594
   4.95054      2.396075
   4.90750      2.331194
   4.86446      2.239208
   4.82142      2.136746
   4.77838      2.032814
   4.73533      1.932668
   4.69229      1.839783
   4.64925      1.757001
   4.60621      1.686098
   4.56317      1.628407
   4.52013      1.584351
   4.47708      1.553571
   4.43404      1.535314
   4.39100      1.529322
   4.39100      1.529322
   4.34640      1.559021
   4.30179      1.644815
   4.25719      1.778056
   4.21259      1.942969
   4.16798      2.112409
   4.12338      2.245421
   4.07878      2.315015
   4.03417      2.333730
   3.98957      2.323797
   3.94497      2.302082
   3.90036      2.282835
   3.85576      2.277939
   3.85576      2.277939
   3.81393      2.286345
   3.77211      2.304274
   3.73028      2.332821
   3.68845      2.373175
   3.64662      2.425485
   3.60480      2.487495
   3.56297      2.556098
   3.52114      2.628151
   3.47932      2.695729
   3.43749      2.737379
   3.39566      2.738360
   3.35383      2.731371
   3.31201      2.728312
   3.27018      2.730191
   3.22835      2.732456
   3.18653      2.723504
   3.14470      2.677293
   3.10287      2.569011
   3.06105      2.409057
   3.01922      2.225232
   2.97739      2.036927
   2.93556      1.858461
   2.89374      1.702223
   2.85191      1.580098
   2.81008      1.501993
   2.76826      1.475120
   2.76826      1.475120
   2.72555      1.502964
   2.68285      1.583521
   2.64015      1.708768
   2.59745      1.866156
   2.55475      2.038491
   2.51205      2.202418
   2.46935      2.327397
   2.42665      2.383402
   2.38395      2.367884
   2.34125      2.306008
   2.29855      2.222320
   2.25585      2.131973
   2.21315      2.043597
   2.17045      1.961367
   2.12775      1.888261
   2.08505      1.825995
   2.04235      1.775806
   1.99965      1.737681
   1.95695      1.710893
   1.91425      1.693893
   1.87155      1.684763
   1.82885      1.682004
   1.82885      1.682004
   1.78282      1.710057
   1.73680      1.789817
   1.69078      1.906497
   1.64476      2.033657
   1.59874      2.139526
   1.55271      2.209001
   1.50669      2.249070
   1.46067      2.270523
   1.41465      2.281665
   1.36863      2.285806
   1.32260      2.283004
   1.27658      2.277134
   1.27658      2.277134
   1.23376      2.281876
   1.19094      2.305751
   1.14812      2.344742
   1.10531      2.395181
   1.06249      2.453751
   1.01967      2.518307
   0.97685      2.586312
   0.93403      2.655734
   0.89121      2.723748
   0.84839      2.780601
   0.80557      2.786080
   0.76275      2.774240
   0.71993      2.764408
   0.67711      2.751947
   0.63429      2.722349
   0.59147      2.653594
   0.54866      2.530729
   0.50584      2.363689
   0.46302      2.172785
   0.42020      1.975169
   0.37738      1.785669
   0.33456      1.618383
   0.29174      1.486896
   0.24892      1.402643
   0.20610      1.373664
   0.20610      1.373664
   0.15458      1.394854
   0.10305      1.434833
   0.05153      1.464780
   0.00000      1.475120
 
# Band-Index:   43
   0.00000      2.523759
   0.05153      2.508411
   0.10305      2.470683
   0.15458      2.432114
   0.20610      2.415970
   0.20610      2.415970
   0.24892      2.435693
   0.29174      2.491986
   0.33456      2.576849
   0.37738      2.678669
   0.42020      2.783956
   0.46302      2.880198
   0.50584      2.959548
   0.54866      3.024083
   0.59147      3.079250
   0.63429      3.100522
   0.67711      3.063464
   0.71993      3.002783
   0.76275      2.937975
   0.80557      2.875263
   0.84839      2.836600
   0.89121      2.856316
   0.93403      2.893872
   0.97685      2.939150
   1.01967      2.988804
   1.06249      3.039343
   1.10531      3.087751
   1.14812      3.130237
   1.19094      3.163303
   1.23376      3.182916
   1.27658      3.186974
   1.27658      3.186974
   1.32260      3.172070
   1.36863      3.135553
   1.41465      3.072895
   1.46067      2.978433
   1.50669      2.850625
   1.55271      2.696702
   1.59874      2.537609
   1.64476      2.399082
   1.69078      2.292076
   1.73680      2.212090
   1.78282      2.160381
   1.82885      2.142174
   1.82885      2.142174
   1.87155      2.151330
   1.91425      2.177984
   1.95695      2.220475
   1.99965      2.276389
   2.04235      2.343264
   2.08505      2.419024
   2.12775      2.502016
   2.17045      2.590501
   2.21315      2.682577
   2.25585      2.776026
   2.29855      2.865714
   2.34125      2.939581
   2.38395      2.974597
   2.42665      2.959946
   2.46935      2.921936
   2.51205      2.876470
   2.55475      2.816511
   2.59745      2.740714
   2.64015      2.659892
   2.68285      2.588958
   2.72555      2.540803
   2.76826      2.523759
   2.76826      2.523759
   2.81008      2.540261
   2.85191      2.587062
   2.89374      2.656268
   2.93556      2.736583
   2.97739      2.814664
   3.01922      2.879706
   3.06105      2.928292
   3.10287      2.970746
   3.14470      3.029988
   3.18653      3.099285
   3.22835      3.109783
   3.27018      3.066508
   3.31201      3.008086
   3.35383      2.945086
   3.39566      2.881606
   3.43749      2.830940
   3.47932      2.826385
   3.52114      2.854436
   3.56297      2.893820
   3.60480      2.939561
   3.64662      2.988394
   3.68845      3.038248
   3.73028      3.087146
   3.77211      3.131780
   3.81393      3.167517
   3.85576      3.186200
   3.85576      3.186200
   3.90036      3.175071
   3.94497      3.123003
   3.98957      3.029137
   4.03417      2.899278
   4.07878      2.747015
   4.12338      2.597840
   4.16798      2.477881
   4.21259      2.381547
   4.25719      2.295902
   4.30179      2.222866
   4.34640      2.172349
   4.39100      2.154141
   4.39100      2.154141
   4.43404      2.161563
   4.47708      2.183507
   4.52013      2.218881
   4.56317      2.266628
   4.60621      2.325329
   4.64925      2.393785
   4.69229      2.470178
   4.73533      2.553588
   4.77838      2.642210
   4.82142      2.733773
   4.86446      2.823260
   4.90750      2.898903
   4.95054      2.940005
   4.99358      2.935909
   5.03662      2.908157
   5.07967      2.868820
   5.12271      2.811802
   5.16575      2.737570
   5.20879      2.658130
   5.25183      2.588277
   5.29487      2.540624
   5.33792      2.523759
 
# Band-Index:   44
   5.33792      3.402622
   5.29487      3.428984
   5.25183      3.503160
   5.20879      3.608845
   5.16575      3.704459
   5.12271      3.702533
   5.07967      3.611586
   5.03662      3.505075
   4.99358      3.414945
   4.95054      3.361110
   4.90750      3.343384
   4.86446      3.334610
   4.82142      3.313224
   4.77838      3.276386
   4.73533      3.227887
   4.69229      3.173152
   4.64925      3.116706
   4.60621      3.062283
   4.56317      3.013256
   4.52013      2.972460
   4.47708      2.941814
   4.43404      2.923011
   4.39100      2.916263
   4.39100      2.916263
   4.34640      2.943646
   4.30179      3.024644
   4.25719      3.158732
   4.21259      3.344902
   4.16798      3.575243
   4.12338      3.831922
   4.07878      3.959547
   4.03417      3.885264
   3.98957      3.800655
   3.94497      3.731509
   3.90036      3.689635
   3.85576      3.681199
   3.85576      3.681199
   3.81393      3.699863
   3.77211      3.736125
   3.73028      3.783353
   3.68845      3.836436
   3.64662      3.891934
   3.60480      3.944210
   3.56297      3.985324
   3.52114      4.005083
   3.47932      3.990532
   3.43749      3.939497
   3.39566      3.859287
   3.35383      3.758816
   3.31201      3.643922
   3.27018      3.521759
   3.22835      3.409731
   3.18653      3.359795
   3.14470      3.398326
   3.10287      3.478306
   3.06105      3.574237
   3.01922      3.671655
   2.97739      3.739453
   2.93556      3.708761
   2.89374      3.603506
   2.85191      3.499433
   2.81008      3.427873
   2.76826      3.402622
   2.76826      3.402622
   2.72555      3.428878
   2.68285      3.502821
   2.64015      3.608787
   2.59745      3.705699
   2.55475      3.705669
   2.51205      3.616731
   2.46935      3.511286
   2.42665      3.418598
   2.38395      3.358824
   2.34125      3.338198
   2.29855      3.331592
   2.25585      3.315595
   2.21315      3.285946
   2.17045      3.246094
   2.12775      3.200379
   2.08505      3.152612
   2.04235      3.106180
   1.99965      3.064067
   1.95695      3.028613
   1.91425      3.001769
   1.87155      2.985104
   1.82885      2.979261
   1.82885      2.979261
   1.78282      3.004623
   1.73680      3.082467
   1.69078      3.214666
   1.64476      3.399640
   1.59874      3.632078
   1.55271      3.889465
   1.50669      3.946876
   1.46067      3.870115
   1.41465      3.793813
   1.36863      3.733942
   1.32260      3.695733
   1.27658      3.680757
   1.27658      3.680757
   1.23376      3.687673
   1.19094      3.713507
   1.14812      3.754520
   1.10531      3.806707
   1.06249      3.863737
   1.01967      3.917647
   0.97685      3.957373
   0.93403      3.969731
   0.89121      3.943771
   0.84839      3.880445
   0.80557      3.789638
   0.76275      3.680516
   0.71993      3.560883
   0.67711      3.443018
   0.63429      3.359165
   0.59147      3.362926
   0.54866      3.436034
   0.50584      3.537358
   0.46302      3.649064
   0.42020      3.752929
   0.37738      3.810526
   0.33456      3.741572
   0.29174      3.619159
   0.24892      3.537329
   0.20610      3.508930
   0.20610      3.508930
   0.15458      3.483771
   0.10305      3.442659
   0.05153      3.413016
   0.00000      3.402622
 
# Band-Index:   45
   0.00000      3.937323
   0.05153      3.901664
   0.10305      3.820790
   0.15458      3.737503
   0.20610      3.696422
   0.20610      3.696422
   0.24892      3.715015
   0.29174      3.762871
   0.33456      3.820597
   0.37738      3.923385
   0.42020      4.085326
   0.46302      4.165586
   0.50584      4.192756
   0.54866      4.217756
   0.59147      4.249118
   0.63429      4.285251
   0.67711      4.322888
   0.71993      4.357773
   0.76275      4.386300
   0.80557      4.406594
   0.84839      4.420527
   0.89121      4.438219
   0.93403      4.474796
   0.97685      4.537561
   1.01967      4.621435
   1.06249      4.715832
   1.10531      4.811815
   1.14812      4.899607
   1.19094      4.969237
   1.23376      5.010136
   1.27658      5.018612
   1.27658      5.018612
   1.32260      4.990916
   1.36863      4.913402
   1.41465      4.755357
   1.46067      4.507490
   1.50669      4.218865
   1.55271      4.039964
   1.59874      4.020015
   1.64476      3.952684
   1.69078      3.871861
   1.73680      3.802686
   1.78282      3.757161
   1.82885      3.741322
   1.82885      3.741322
   1.87155      3.747015
   1.91425      3.763247
   1.95695      3.789761
   1.99965      3.826064
   2.04235      3.870934
   2.08505      3.923213
   2.12775      3.980752
   2.17045      4.040827
   2.21315      4.099319
   2.25585      4.152244
   2.29855      4.196240
   2.34125      4.227156
   2.38395      4.240454
   2.42665      4.229086
   2.46935      4.186464
   2.51205      4.114427
   2.55475      4.029718
   2.59745      3.994328
   2.64015      4.005435
   2.68285      3.983855
   2.72555      3.951260
   2.76826      3.937323
   2.76826      3.937323
   2.81008      3.950945
   2.85191      3.983647
   2.89374      4.009216
   2.93556      4.000315
   2.97739      4.014495
   3.01922      4.085347
   3.06105      4.153619
   3.10287      4.206930
   3.14470      4.248295
   3.18653      4.280245
   3.22835      4.307791
   3.27018      4.336298
   3.31201      4.366812
   3.35383      4.396587
   3.39566      4.420618
   3.43749      4.438330
   3.47932      4.457618
   3.52114      4.493033
   3.56297      4.550531
   3.60480      4.625354
   3.64662      4.708076
   3.68845      4.791717
   3.73028      4.870195
   3.77211      4.937504
   3.81393      4.988888
   3.85576      5.017825
   3.85576      5.017825
   3.90036      5.010543
   3.94497      4.930218
   3.98957      4.736054
   4.03417      4.464318
   4.07878      4.183904
   4.12338      4.097572
   4.16798      4.120023
   4.21259      4.094764
   4.25719      4.043867
   4.30179      3.995592
   4.34640      3.962408
   4.39100      3.950783
   4.39100      3.950783
   4.43404      3.947796
   4.47708      3.939641
   4.52013      3.931142
   4.56317      3.927145
   4.60621      3.932368
   4.64925      3.949694
   4.69229      3.979038
   4.73533      4.018458
   4.77838      4.063173
   4.82142      4.106450
   4.86446      4.143342
   4.90750      4.171156
   4.95054      4.187792
   4.99358      4.187798
   5.03662      4.161800
   5.07967      4.103729
   5.12271      4.028340
   5.16575      3.997611
   5.20879      4.007516
   5.25183      3.983571
   5.29487      3.950911
   5.33792      3.937323
 
# Band-Index:   46
   5.33792      4.392631
   5.29487      4.370533
   5.25183      4.317840
   5.20879      4.272112
   5.16575      4.290589
   5.12271      4.377640
   5.07967      4.509643
   5.03662      4.660061
   4.99358      4.792628
   4.95054      4.893871
   4.90750      4.964746
   4.86446      5.001574
   4.82142      5.007755
   4.77838      4.992254
   4.73533      4.961081
   4.69229      4.919178
   4.64925      4.870096
   4.60621      4.816847
   4.56317      4.763664
   4.52013      4.714402
   4.47708      4.673530
   4.43404      4.645928
   4.39100      4.635857
   4.39100      4.635857
   4.34640      4.664645
   4.30179      4.740721
   4.25719      4.809056
   4.21259      4.750661
   4.16798      4.690869
   4.12338      4.716442
   4.07878      4.816752
   4.03417      4.945663
   3.98957      5.072501
   3.94497      5.202861
   3.90036      5.344052
   3.85576      5.439619
   3.85576      5.439620
   3.81393      5.403364
   3.77211      5.315283
   3.73028      5.205366
   3.68845      5.089635
   3.64662      4.979411
   3.60480      4.880466
   3.56297      4.796418
   3.52114      4.733486
   3.47932      4.692083
   3.43749      4.674025
   3.39566      4.674443
   3.35383      4.684524
   3.31201      4.699045
   3.27018      4.717668
   3.22835      4.740327
   3.18653      4.765622
   3.14470      4.783806
   3.10287      4.736194
   3.06105      4.581438
   3.01922      4.434950
   2.97739      4.329441
   2.93556      4.273700
   2.89374      4.274350
   2.85191      4.321496
   2.81008      4.371234
   2.76826      4.392631
   2.76826      4.392631
   2.72555      4.370647
   2.68285      4.319152
   2.64015      4.276565
   2.59745      4.292502
   2.55475      4.367302
   2.51205      4.483129
   2.46935      4.619993
   2.42665      4.750139
   2.38395      4.861144
   2.34125      4.950094
   2.29855      5.001173
   2.25585      5.002766
   2.21315      4.969196
   2.17045      4.920045
   2.12775      4.867826
   2.08505      4.819056
   2.04235      4.777064
   1.99965      4.742752
   1.95695      4.716899
   1.91425      4.698686
   1.87155      4.688018
   1.82885      4.684471
   1.82885      4.684471
   1.78282      4.711253
   1.73680      4.782529
   1.69078      4.808059
   1.64476      4.705588
   1.59874      4.623278
   1.55271      4.637806
   1.50669      4.758901
   1.46067      4.938376
   1.41465      5.143130
   1.36863      5.341074
   1.32260      5.442185
   1.27658      5.437003
   1.27658      5.437003
   1.23376      5.392819
   1.19094      5.326306
   1.14812      5.244646
   1.10531      5.152159
   1.06249      5.054231
   1.01967      4.958421
   0.97685      4.871635
   0.93403      4.799841
   0.89121      4.746223
   0.84839      4.712044
   0.80557      4.696598
   0.76275      4.698104
   0.71993      4.712069
   0.67711      4.734120
   0.63429      4.756917
   0.59147      4.767072
   0.54866      4.706992
   0.50584      4.530564
   0.46302      4.337943
   0.42020      4.201235
   0.37738      4.181649
   0.33456      4.229412
   0.29174      4.307063
   0.24892      4.371306
   0.20610      4.395872
   0.20610      4.395872
   0.15458      4.395606
   0.10305      4.394476
   0.05153      4.392916
   0.00000      4.392631
 
# Band-Index:   47
   0.00000      4.392631
   0.05153      4.392916
   0.10305      4.394476
   0.15458      4.395606
   0.20610      4.395872
   0.20610      4.395872
   0.24892      4.407232
   0.29174      4.440751
   0.33456      4.495329
   0.37738      4.571175
   0.42020      4.667068
   0.46302      4.753187
   0.50584      4.791607
   0.54866      4.831912
   0.59147      4.962679
   0.63429      5.028919
   0.67711      5.029741
   0.71993      5.036406
   0.76275      5.055411
   0.80557      5.090142
   0.84839      5.138210
   0.89121      5.190329
   0.93403      5.235972
   0.97685      5.274682
   1.01967      5.313046
   1.06249      5.353436
   1.10531      5.390243
   1.14812      5.414182
   1.19094      5.429086
   1.23376      5.448916
   1.27658      5.478410
   1.27658      5.478410
   1.32260      5.498842
   1.36863      5.501965
   1.41465      5.508156
   1.46067      5.532295
   1.50669      5.569476
   1.55271      5.464898
   1.59874      5.296314
   1.64476      5.124810
   1.69078      4.990504
   1.73680      4.999060
   1.78282      5.020371
   1.82885      5.012136
   1.82885      5.012136
   1.87155      5.018392
   1.91425      5.037235
   1.95695      5.067390
   1.99965      5.106829
   2.04235      5.153025
   2.08505      5.202014
   2.12775      5.247345
   2.17045      5.281256
   2.21315      5.293743
   2.25585      5.261790
   2.29855      5.208694
   2.34125      5.138117
   2.38395      5.057082
   2.42665      4.957788
   2.46935      4.854755
   2.51205      4.748520
   2.55475      4.650983
   2.59745      4.563680
   2.64015      4.491417
   2.68285      4.437585
   2.72555      4.404133
   2.76826      4.392631
   2.76826      4.392631
   2.81008      4.403485
   2.85191      4.433721
   2.89374      4.480183
   2.93556      4.544310
   2.97739      4.623936
   3.01922      4.709024
   3.06105      4.782046
   3.10287      4.833138
   3.14470      4.951459
   3.18653      5.061714
   3.22835      5.122435
   3.27018      5.138626
   3.31201      5.121396
   3.35383      5.104549
   3.39566      5.112305
   3.43749      5.154549
   3.47932      5.226294
   3.52114      5.314626
   3.56297      5.404887
   3.60480      5.484943
   3.64662      5.544683
   3.68845      5.579605
   3.73028      5.589614
   3.77211      5.575418
   3.81393      5.537338
   3.85576      5.482331
   3.85576      5.482331
   3.90036      5.473752
   3.94497      5.457257
   3.98957      5.432491
   4.03417      5.402311
   4.07878      5.352385
   4.12338      5.271671
   4.16798      5.169224
   4.21259      5.056943
   4.25719      4.994677
   4.30179      5.048475
   4.34640      5.016263
   4.39100      4.997836
   4.39100      4.997836
   4.43404      5.008030
   4.47708      5.037388
   4.52013      5.084932
   4.56317      5.148224
   4.60621      5.223308
   4.64925      5.305221
   4.69229      5.354125
   4.73533      5.331809
   4.77838      5.305610
   4.82142      5.265672
   4.86446      5.209558
   4.90750      5.137289
   4.95054      5.050449
   4.99358      4.952883
   5.03662      4.849873
   5.07967      4.746637
   5.12271      4.649928
   5.16575      4.562805
   5.20879      4.490862
   5.25183      4.437269
   5.29487      4.404092
   5.33792      4.392631
 
# Band-Index:   48
   5.33792      4.506874
   5.29487      4.521579
   5.25183      4.561313
   5.20879      4.622003
   5.16575      4.694682
   5.12271      4.761068
   5.07967      4.811872
   5.03662      4.869913
   4.99358      4.964687
   4.95054      5.092037
   4.90750      5.228789
   4.86446      5.359959
   4.82142      5.459965
   4.77838      5.489387
   4.73533      5.453344
   4.69229      5.385617
   4.64925      5.367578
   4.60621      5.361738
   4.56317      5.346721
   4.52013      5.392947
   4.47708      5.340387
   4.43404      5.339349
   4.39100      5.332801
   4.39100      5.400616
   4.34640      5.262176
   4.30179      5.159523
   4.25719      5.221942
   4.21259      5.372822
   4.16798      5.521805
   4.12338      5.558112
   4.07878      5.555755
   4.03417      5.603890
   3.98957      5.712090
   3.94497      5.848448
   3.90036      5.965820
   3.85576      6.077056
   3.85576      6.095786
   3.81393      6.084533
   3.77211      6.043158
   3.73028      6.022811
   3.68845      5.989649
   3.64662      6.012152
   3.60480      5.978321
   3.56297      5.972865
   3.52114      5.950681
   3.47932      5.905913
   3.43749      5.841053
   3.39566      5.757299
   3.35383      5.642853
   3.31201      5.526938
   3.27018      5.418264
   3.22835      5.293557
   3.18653      5.139129
   3.14470      5.007237
   3.10287      4.944899
   3.06105      4.917584
   3.01922      4.886521
   2.97739      4.813055
   2.93556      4.715101
   2.89374      4.624577
   2.85191      4.559099
   2.81008      4.520567
   2.76826      4.506874
   2.76826      4.506874
   2.72555      4.521135
   2.68285      4.559958
   2.64015      4.622955
   2.59745      4.708422
   2.55475      4.802504
   2.51205      4.881694
   2.46935      4.939761
   2.42665      5.001620
   2.38395      5.080985
   2.34125      5.161386
   2.29855      5.228127
   2.25585      5.275513
   2.21315      5.297625
   2.17045      5.318147
   2.12775      5.326574
   2.08505      5.326327
   2.04235      5.320776
   1.99965      5.312696
   1.95695      5.304249
   1.91425      5.296709
   1.87155      5.291597
   1.82885      5.289690
   1.82885      5.290596
   1.78282      5.271141
   1.73680      5.288065
   1.69078      5.416606
   1.64476      5.624559
   1.59874      5.793877
   1.55271      5.692484
   1.50669      5.652561
   1.46067      5.748138
   1.41465      5.815475
   1.36863      5.860784
   1.32260      5.957799
   1.27658      6.048445
   1.27658      6.034316
   1.23376      5.930818
   1.19094      5.821731
   1.14812      5.729270
   1.10531      5.667537
   1.06249      5.627775
   1.01967      5.588353
   0.97685      5.539775
   0.93403      5.492108
   0.89121      5.461620
   0.84839      5.455043
   0.80557      5.462500
   0.76275      5.470704
   0.71993      5.461847
   0.67711      5.335966
   0.63429      5.159604
   0.59147      5.046432
   0.54866      5.025008
   0.50584      4.935520
   0.46302      4.821022
   0.42020      4.763538
   0.37738      4.742564
   0.33456      4.726558
   0.29174      4.710062
   0.24892      4.694809
   0.20610      4.687829
   0.20610      4.687829
   0.15458      4.665898
   0.10305      4.607629
   0.05153      4.539622
   0.00000      4.506874
